prac_prime	forward_mask	backward_mask	practice_part1	practice_part2	condition	practice_1.thisRepN	practice_1.thisTrialN	practice_1.thisN	practice_1.thisIndex	practice_2.thisRepN	practice_2.thisTrialN	practice_2.thisN	practice_2.thisIndex	fbLoop1.thisRepN	fbLoop1.thisTrialN	fbLoop1.thisN	fbLoop1.thisIndex	fbLoop2.thisRepN	fbLoop2.thisTrialN	fbLoop2.thisN	fbLoop2.thisIndex	skip_prac.thisRepN	skip_prac.thisTrialN	skip_prac.thisN	skip_prac.thisIndex	block_conditions.thisRepN	block_conditions.thisTrialN	block_conditions.thisN	block_conditions.thisIndex	blocks.thisRepN	blocks.thisTrialN	blocks.thisN	blocks.thisIndex	feedback_con1.thisRepN	feedback_con1.thisTrialN	feedback_con1.thisN	feedback_con1.thisIndex	feedback_con2.thisRepN	feedback_con2.thisTrialN	feedback_con2.thisN	feedback_con2.thisIndex	skip_questionnaire.thisRepN	skip_questionnaire.thisTrialN	skip_questionnaire.thisN	skip_questionnaire.thisIndex	loading_screen.started	welcome_text.started	welcome_resp.started	welcome_resp.keys	welcome_resp.rt	Task_instructions.started	instructions_resp.started	Fake_demo.started	left_arrow_demo.started	Real_demo.started	right_arrow_demo.started	instructions_resp.keys	instructions_resp.rt	fix_cross.started	fix_cross.stopped	fixation_duration	pratice_target1.started	practice_part1_resp.started	prac_LeftArrow.started	prac_RightArrow.started	prac_FakeLabel1.started	prac_RealLabel1.started	practice_part1_resp.keys	practice_part1_resp.rt	prac_fb.started	ISI_prac.started	confidence_resp.started	confidence_scale.started	confidence_resp.keys	confidence_resp.rt	stim_gender.started	attention_resp.started	male_button.started	female_button.started	male_label.started	female_label.started	attention_resp.keys	attention_resp.rt	prestim_text.started	prestim_text.stopped	Practice_instructions.started	key_resp.started	key_resp.keys	key_resp.rt	pract_fw.started	pract_fw.stopped	pract_prime.started	pract_prime.stopped	pract_bm.started	pract_bm.stopped	pract_target2.started	prac_resp2.started	prac_LeftArrow_2.started	prac_RightArrow_2.started	prac_FakeLabel1_2.started	prac_RealLabel1_2.started	prac_resp2.keys	prac_fb3.started	prac_fb_resp.started	prac_fb_resp.keys	prac_fb_resp.rt	prac_resp2.rt	prac_fb2.started	prac_fb2.stopped	begin_expt.started	begin_expt.keys	begin_expt.rt	forward_mask.started	forward_mask.1	forward_mask.stopped	forward_mask_duration.frames	prime.started	prime.stopped	prime	backward_mask.started	backward_mask.1	backward_mask.stopped	target.started	target	target.stopped	rt_fb_2.started	feedback_resp.started	feedback_resp.keys	feedback_resp.rt	realness_response	realness_rt	rt_fb.started	rt_fb.stopped	break_text.started	break_resp.started	break_resp.keys	break_resp.rt	familiarity_scale.started	familiarity_resp.started	familiarity_resp.keys	familiarity_resp.rt	PAS_question.started	PAS_response.started	PAS_response.keys	PAS_response.rt	end_experiment.started	end_key.started	end_key.keys	end_key.rt	participant	session	date	expName	psychopyVersion	frameRate	Unnamed: 156
n/a	n/a	n/a	n/a	n/a	n/a	n/a	n/a	n/a	n/a	n/a	n/a	n/a	n/a	n/a	n/a	n/a	n/a	n/a	n/a	n/a	n/a	n/a	n/a	n/a	n/a	n/a	n/a	n/a	n/a	n/a	n/a	n/a	n/a	n/a	n/a	n/a	n/a	n/a	n/a	n/a	n/a	n/a	n/a	n/a	n/a	19.334667900111526	109.26116870017722	109.26116870017722	space	2.988057399634272	n/a	n/a	n/a	n/a	n/a	n/a	n/a	n/a	n/a	n/a	n/a	n/a	n/a	n/a	n/a	n/a	n/a	n/a	n/a	n/a	n/a	n/a	n/a	n/a	n/a	n/a	n/a	n/a	n/a	n/a	n/a	n/a	n/a	n/a	n/a	n/a	n/a	n/a	n/a	n/a	n/a	n/a	n/a	n/a	n/a	n/a	n/a	n/a	n/a	n/a	n/a	n/a	n/a	n/a	n/a	n/a	n/a	n/a	n/a	n/a	n/a	n/a	n/a	n/a	n/a	n/a	n/a	n/a	n/a	n/a	n/a	n/a	n/a	n/a	n/a	n/a	n/a	n/a	n/a	n/a	n/a	n/a	n/a	n/a	n/a	n/a	n/a	n/a	n/a	n/a	n/a	n/a	n/a	n/a	n/a	n/a	n/a	n/a	n/a	45	1	2023-03-15_18h03.21.239	test_final	2022.2.4	60.08734306734811	n/a
n/a	n/a	n/a	n/a	n/a	n/a	n/a	n/a	n/a	n/a	n/a	n/a	n/a	n/a	n/a	n/a	n/a	n/a	n/a	n/a	n/a	n/a	n/a	n/a	n/a	n/a	n/a	n/a	n/a	n/a	n/a	n/a	n/a	n/a	n/a	n/a	n/a	n/a	n/a	n/a	n/a	n/a	n/a	n/a	n/a	n/a	n/a	n/a	n/a	n/a	n/a	112.2799309999682	112.2799309999682	112.2799309999682	112.2799309999682	112.2799309999682	112.2799309999682	space	2.376835399772972	n/a	n/a	n/a	n/a	n/a	n/a	n/a	n/a	n/a	n/a	n/a	n/a	n/a	n/a	n/a	n/a	n/a	n/a	n/a	n/a	n/a	n/a	n/a	n/a	n/a	n/a	n/a	n/a	n/a	n/a	n/a	n/a	n/a	n/a	n/a	n/a	n/a	n/a	n/a	n/a	n/a	n/a	n/a	n/a	n/a	n/a	n/a	n/a	n/a	n/a	n/a	n/a	n/a	n/a	n/a	n/a	n/a	n/a	n/a	n/a	n/a	n/a	n/a	n/a	n/a	n/a	n/a	n/a	n/a	n/a	n/a	n/a	n/a	n/a	n/a	n/a	n/a	n/a	n/a	n/a	n/a	n/a	n/a	n/a	n/a	n/a	n/a	n/a	n/a	n/a	n/a	45	1	2023-03-15_18h03.21.239	test_final	2022.2.4	60.08734306734811	n/a
NimStim_Database/Images/43M_NE_O.BMP	utils/practice/ScrambledFW_11F_NE_C.BMP	utils/practice/ScrambledBW_11F_NE_C.BMP	utils/practice/real_prac11.jpg	utils/practice/fake_prac11.jpg	n/a	0.0	0.0	0.0	4.0	n/a	n/a	n/a	n/a	n/a	n/a	n/a	n/a	n/a	n/a	n/a	n/a	n/a	n/a	n/a	n/a	n/a	n/a	n/a	n/a	n/a	n/a	n/a	n/a	n/a	n/a	n/a	n/a	n/a	n/a	n/a	n/a	n/a	n/a	n/a	n/a	n/a	n/a	n/a	n/a	n/a	n/a	n/a	n/a	n/a	n/a	n/a	n/a	n/a	114.68731479998678	116.81574800005184	2.0799999999999983	116.81574800005184	116.81574800005184	116.81574800005184	116.81574800005184	116.81574800005184	116.81574800005184	right	1.2894792002625763	118.1272962000221	0.0098296999931335	120.1415057000704	120.1415057000704	3.0	3.421159400139004	123.58757880004124	123.58757880004124	123.58757880004124	123.58757880004124	123.58757880004124	123.58757880004124	1.0	1.339264899957925	124.95277919992805	n/a	n/a	n/a	n/a	n/a	n/a	n/a	n/a	n/a	n/a	n/a	n/a	n/a	n/a	n/a	n/a	n/a	n/a	n/a	n/a	n/a	n/a	n/a	n/a	n/a	n/a	n/a	n/a	n/a	utils/practice/ScrambledFW_11F_NE_C.BMP	n/a	n/a	n/a	n/a	n/a	n/a	utils/practice/ScrambledBW_11F_NE_C.BMP	n/a	n/a	n/a	n/a	n/a	n/a	n/a	n/a	n/a	n/a	n/a	n/a	n/a	n/a	n/a	n/a	n/a	n/a	n/a	n/a	n/a	n/a	n/a	n/a	n/a	n/a	n/a	n/a	45	1	2023-03-15_18h03.21.239	test_final	2022.2.4	60.08734306734811	n/a
NimStim_Database/Images/11F_NE_C.BMP	utils/practice/ScrambledFW_37M_NE_C.BMP	utils/practice/ScrambledBW_37M_NE_C.BMP	utils/practice/real_prac16.jpg	utils/practice/fake_prac1.jpg	n/a	0.0	1.0	1.0	14.0	n/a	n/a	n/a	n/a	n/a	n/a	n/a	n/a	n/a	n/a	n/a	n/a	n/a	n/a	n/a	n/a	n/a	n/a	n/a	n/a	n/a	n/a	n/a	n/a	n/a	n/a	n/a	n/a	n/a	n/a	n/a	n/a	n/a	n/a	n/a	n/a	n/a	n/a	n/a	n/a	n/a	n/a	n/a	n/a	n/a	n/a	n/a	n/a	n/a	126.96728310035542	129.3116496000439	2.2999999999999936	129.3116496000439	129.3116496000439	129.3116496000439	129.3116496000439	129.3116496000439	129.3116496000439	left	2.424308800138533	131.7618806003593	0.0088770003058016	133.77624570019543	133.77624570019543	2.0	1.7469005999155345	135.5411376999691	135.5411376999691	135.5411376999691	135.5411376999691	135.5411376999691	135.5411376999691	4.0	1.1706365998834372	136.73987750010565	n/a	n/a	n/a	n/a	n/a	n/a	n/a	n/a	n/a	n/a	n/a	n/a	n/a	n/a	n/a	n/a	n/a	n/a	n/a	n/a	n/a	n/a	n/a	n/a	n/a	n/a	n/a	n/a	n/a	utils/practice/ScrambledFW_37M_NE_C.BMP	n/a	n/a	n/a	n/a	n/a	n/a	utils/practice/ScrambledBW_37M_NE_C.BMP	n/a	n/a	n/a	n/a	n/a	n/a	n/a	n/a	n/a	n/a	n/a	n/a	n/a	n/a	n/a	n/a	n/a	n/a	n/a	n/a	n/a	n/a	n/a	n/a	n/a	n/a	n/a	n/a	45	1	2023-03-15_18h03.21.239	test_final	2022.2.4	60.08734306734811	n/a
NimStim_Database/Images/12F_NE_C.BMP	utils/practice/ScrambledFW_03F_NE_O.BMP	utils/practice/ScrambledBW_03F_NE_O.BMP	utils/practice/real_prac9.jpg	utils/practice/real_prac13.jpg	n/a	0.0	2.0	2.0	1.0	n/a	n/a	n/a	n/a	n/a	n/a	n/a	n/a	n/a	n/a	n/a	n/a	n/a	n/a	n/a	n/a	n/a	n/a	n/a	n/a	n/a	n/a	n/a	n/a	n/a	n/a	n/a	n/a	n/a	n/a	n/a	n/a	n/a	n/a	n/a	n/a	n/a	n/a	n/a	n/a	n/a	n/a	n/a	n/a	n/a	n/a	n/a	n/a	n/a	138.75404920009896	141.27094800025225	2.46999999999999	141.27094800025225	141.27094800025225	141.27094800025225	141.27094800025225	141.27094800025225	141.27094800025225	right	1.243156500160694	142.53348340000957	0.0032030004076659	144.54776340024546	144.54776340024546	3.0	3.3824760001152754	147.9610701999627	147.9610701999627	147.9610701999627	147.9610701999627	147.9610701999627	147.9610701999627	1.0	0.6139341001398861	148.593418400269	n/a	n/a	n/a	n/a	n/a	n/a	n/a	n/a	n/a	n/a	n/a	n/a	n/a	n/a	n/a	n/a	n/a	n/a	n/a	n/a	n/a	n/a	n/a	n/a	n/a	n/a	n/a	n/a	n/a	utils/practice/ScrambledFW_03F_NE_O.BMP	n/a	n/a	n/a	n/a	n/a	n/a	utils/practice/ScrambledBW_03F_NE_O.BMP	n/a	n/a	n/a	n/a	n/a	n/a	n/a	n/a	n/a	n/a	n/a	n/a	n/a	n/a	n/a	n/a	n/a	n/a	n/a	n/a	n/a	n/a	n/a	n/a	n/a	n/a	n/a	n/a	45	1	2023-03-15_18h03.21.239	test_final	2022.2.4	60.08734306734811	n/a
NimStim_Database/Images/06F_NE_O.BMP	utils/practice/ScrambledFW_06F_NE_O.BMP	utils/practice/ScrambledBW_06F_NE_O.BMP	utils/practice/fake_prac2.jpg	utils/practice/real_prac15.jpg	n/a	0.0	3.0	3.0	2.0	n/a	n/a	n/a	n/a	n/a	n/a	n/a	n/a	n/a	n/a	n/a	n/a	n/a	n/a	n/a	n/a	n/a	n/a	n/a	n/a	n/a	n/a	n/a	n/a	n/a	n/a	n/a	n/a	n/a	n/a	n/a	n/a	n/a	n/a	n/a	n/a	n/a	n/a	n/a	n/a	n/a	n/a	n/a	n/a	n/a	n/a	n/a	n/a	n/a	150.60795750003308	152.77294340031222	2.129999999999997	152.77294340031222	152.77294340031222	152.77294340031222	152.77294340031222	152.77294340031222	152.77294340031222	left	2.2015472003258765	155.00310150021687	0.0031430996023118	157.01757130026817	157.01757130026817	3.0	1.8952752999030051	158.93234710022807	158.93234710022807	158.93234710022807	158.93234710022807	158.93234710022807	158.93234710022807	4.0	0.9722679001279176	159.93090680008754	n/a	n/a	n/a	n/a	n/a	n/a	n/a	n/a	n/a	n/a	n/a	n/a	n/a	n/a	n/a	n/a	n/a	n/a	n/a	n/a	n/a	n/a	n/a	n/a	n/a	n/a	n/a	n/a	n/a	utils/practice/ScrambledFW_06F_NE_O.BMP	n/a	n/a	n/a	n/a	n/a	n/a	utils/practice/ScrambledBW_06F_NE_O.BMP	n/a	n/a	n/a	n/a	n/a	n/a	n/a	n/a	n/a	n/a	n/a	n/a	n/a	n/a	n/a	n/a	n/a	n/a	n/a	n/a	n/a	n/a	n/a	n/a	n/a	n/a	n/a	n/a	45	1	2023-03-15_18h03.21.239	test_final	2022.2.4	60.08734306734811	n/a
NimStim_Database/Images/25M_NE_C.BMP	utils/practice/ScrambledFW_01F_NE_O.BMP	utils/practice/ScrambledBW_01F_NE_O.BMP	utils/practice/real_prac1.jpg	utils/practice/real_prac10.jpg	n/a	0.0	4.0	4.0	0.0	n/a	n/a	n/a	n/a	n/a	n/a	n/a	n/a	n/a	n/a	n/a	n/a	n/a	n/a	n/a	n/a	n/a	n/a	n/a	n/a	n/a	n/a	n/a	n/a	n/a	n/a	n/a	n/a	n/a	n/a	n/a	n/a	n/a	n/a	n/a	n/a	n/a	n/a	n/a	n/a	n/a	n/a	n/a	n/a	n/a	n/a	n/a	n/a	n/a	161.9451930001378	164.3930273000151	2.3999999999999915	164.3930273000151	164.3930273000151	164.3930273000151	164.3930273000151	164.3930273000151	164.3930273000151	left	4.013450300320983	168.43853290006518	0.0024021998979151	170.45297180023044	170.45297180023044	1.0	1.0352006000466645	171.51846950035542	171.51846950035542	171.51846950035542	171.51846950035542	171.51846950035542	171.51846950035542	4.0	1.4078469998203218	172.94994980003685	n/a	n/a	n/a	n/a	n/a	n/a	n/a	n/a	n/a	n/a	n/a	n/a	n/a	n/a	n/a	n/a	n/a	n/a	n/a	n/a	n/a	n/a	n/a	n/a	n/a	n/a	n/a	n/a	n/a	utils/practice/ScrambledFW_01F_NE_O.BMP	n/a	n/a	n/a	n/a	n/a	n/a	utils/practice/ScrambledBW_01F_NE_O.BMP	n/a	n/a	n/a	n/a	n/a	n/a	n/a	n/a	n/a	n/a	n/a	n/a	n/a	n/a	n/a	n/a	n/a	n/a	n/a	n/a	n/a	n/a	n/a	n/a	n/a	n/a	n/a	n/a	45	1	2023-03-15_18h03.21.239	test_final	2022.2.4	60.08734306734811	n/a
NimStim_Database/Images/24M_NE_C.BMP	utils/practice/ScrambledFW_43M_NE_O.BMP	utils/practice/ScrambledBW_43M_NE_O.BMP	utils/practice/fake_prac13.jpg	utils/practice/real_prac12.jpg	n/a	0.0	5.0	5.0	15.0	n/a	n/a	n/a	n/a	n/a	n/a	n/a	n/a	n/a	n/a	n/a	n/a	n/a	n/a	n/a	n/a	n/a	n/a	n/a	n/a	n/a	n/a	n/a	n/a	n/a	n/a	n/a	n/a	n/a	n/a	n/a	n/a	n/a	n/a	n/a	n/a	n/a	n/a	n/a	n/a	n/a	n/a	n/a	n/a	n/a	n/a	n/a	n/a	n/a	174.96458390029147	177.33027340006083	2.329999999999993	177.33027340006083	177.33027340006083	177.33027340006083	177.33027340006083	177.33027340006083	177.33027340006083	left	3.204861300066113	180.55858840001747	0.0039229001849889	182.5727309002541	182.5727309002541	3.0	0.6818216000683606	183.27219860022888	183.27219860022888	183.27219860022888	183.27219860022888	183.27219860022888	183.27219860022888	1.0	0.9723819000646472	184.27084030024707	n/a	n/a	n/a	n/a	n/a	n/a	n/a	n/a	n/a	n/a	n/a	n/a	n/a	n/a	n/a	n/a	n/a	n/a	n/a	n/a	n/a	n/a	n/a	n/a	n/a	n/a	n/a	n/a	n/a	utils/practice/ScrambledFW_43M_NE_O.BMP	n/a	n/a	n/a	n/a	n/a	n/a	utils/practice/ScrambledBW_43M_NE_O.BMP	n/a	n/a	n/a	n/a	n/a	n/a	n/a	n/a	n/a	n/a	n/a	n/a	n/a	n/a	n/a	n/a	n/a	n/a	n/a	n/a	n/a	n/a	n/a	n/a	n/a	n/a	n/a	n/a	45	1	2023-03-15_18h03.21.239	test_final	2022.2.4	60.08734306734811	n/a
NimStim_Database/Images/03F_NE_O.BMP	utils/practice/ScrambledFW_23M_NE_C.BMP	utils/practice/ScrambledBW_23M_NE_C.BMP	utils/practice/fake_prac7.jpg	utils/practice/real_prac6.jpg	n/a	0.0	6.0	6.0	8.0	n/a	n/a	n/a	n/a	n/a	n/a	n/a	n/a	n/a	n/a	n/a	n/a	n/a	n/a	n/a	n/a	n/a	n/a	n/a	n/a	n/a	n/a	n/a	n/a	n/a	n/a	n/a	n/a	n/a	n/a	n/a	n/a	n/a	n/a	n/a	n/a	n/a	n/a	n/a	n/a	n/a	n/a	n/a	n/a	n/a	n/a	n/a	n/a	n/a	186.28546319995075	188.6517149000429	2.329999999999993	188.6517149000429	188.6517149000429	188.6517149000429	188.6517149000429	188.6517149000429	188.6517149000429	left	1.988502100110054	190.664061000105	0.0027993000112473	192.67827370017767	192.67827370017767	3.0	0.658240900374949	193.36117190029472	193.36117190029472	193.36117190029472	193.36117190029472	193.36117190029472	193.36117190029472	4.0	1.2407628996297717	194.6261959001422	n/a	n/a	n/a	n/a	n/a	n/a	n/a	n/a	n/a	n/a	n/a	n/a	n/a	n/a	n/a	n/a	n/a	n/a	n/a	n/a	n/a	n/a	n/a	n/a	n/a	n/a	n/a	n/a	n/a	utils/practice/ScrambledFW_23M_NE_C.BMP	n/a	n/a	n/a	n/a	n/a	n/a	utils/practice/ScrambledBW_23M_NE_C.BMP	n/a	n/a	n/a	n/a	n/a	n/a	n/a	n/a	n/a	n/a	n/a	n/a	n/a	n/a	n/a	n/a	n/a	n/a	n/a	n/a	n/a	n/a	n/a	n/a	n/a	n/a	n/a	n/a	45	1	2023-03-15_18h03.21.239	test_final	2022.2.4	60.08734306734811	n/a
NimStim_Database/Images/01F_NE_O.BMP	utils/practice/ScrambledFW_28M_NE_O.BMP	utils/practice/ScrambledBW_28M_NE_O.BMP	utils/practice/fake_prac14.jpg	utils/practice/fake_prac8.jpg	n/a	0.0	7.0	7.0	12.0	n/a	n/a	n/a	n/a	n/a	n/a	n/a	n/a	n/a	n/a	n/a	n/a	n/a	n/a	n/a	n/a	n/a	n/a	n/a	n/a	n/a	n/a	n/a	n/a	n/a	n/a	n/a	n/a	n/a	n/a	n/a	n/a	n/a	n/a	n/a	n/a	n/a	n/a	n/a	n/a	n/a	n/a	n/a	n/a	n/a	n/a	n/a	n/a	n/a	196.640796800144	198.7407659003511	2.0599999999999987	198.7407659003511	198.7407659003511	198.7407659003511	198.7407659003511	198.7407659003511	198.7407659003511	left	1.3734216000884771	200.1366631002165	0.0036876997910439	202.15145249990744	202.15145249990744	3.0	1.1703213998116553	203.3500085999258	203.3500085999258	203.3500085999258	203.3500085999258	203.3500085999258	203.3500085999258	1.0	0.1618307000026106	203.5332969999872	n/a	n/a	n/a	n/a	n/a	n/a	n/a	n/a	n/a	n/a	n/a	n/a	n/a	n/a	n/a	n/a	n/a	n/a	n/a	n/a	n/a	n/a	n/a	n/a	n/a	n/a	n/a	n/a	n/a	utils/practice/ScrambledFW_28M_NE_O.BMP	n/a	n/a	n/a	n/a	n/a	n/a	utils/practice/ScrambledBW_28M_NE_O.BMP	n/a	n/a	n/a	n/a	n/a	n/a	n/a	n/a	n/a	n/a	n/a	n/a	n/a	n/a	n/a	n/a	n/a	n/a	n/a	n/a	n/a	n/a	n/a	n/a	n/a	n/a	n/a	n/a	45	1	2023-03-15_18h03.21.239	test_final	2022.2.4	60.08734306734811	n/a
NimStim_Database/Images/33M_NE_C.BMP	utils/practice/ScrambledFW_25M_NE_C.BMP	utils/practice/ScrambledBW_25M_NE_C.BMP	utils/practice/fake_prac4.jpg	utils/practice/fake_prac5.jpg	n/a	0.0	8.0	8.0	10.0	n/a	n/a	n/a	n/a	n/a	n/a	n/a	n/a	n/a	n/a	n/a	n/a	n/a	n/a	n/a	n/a	n/a	n/a	n/a	n/a	n/a	n/a	n/a	n/a	n/a	n/a	n/a	n/a	n/a	n/a	n/a	n/a	n/a	n/a	n/a	n/a	n/a	n/a	n/a	n/a	n/a	n/a	n/a	n/a	n/a	n/a	n/a	n/a	n/a	205.5475984001532	207.6065730000846	2.02	207.6065730000846	207.6065730000846	207.6065730000846	207.6065730000846	207.6065730000846	207.6065730000846	left	2.6527598001994197	210.275905800052	0.0048247002996504	212.2901003002189	212.2901003002189	2.0	1.9846521997824311	214.3046635002829	214.3046635002829	214.3046635002829	214.3046635002829	214.3046635002829	214.3046635002829	4.0	0.9834098997525872	215.3202182999812	n/a	n/a	n/a	n/a	n/a	n/a	n/a	n/a	n/a	n/a	n/a	n/a	n/a	n/a	n/a	n/a	n/a	n/a	n/a	n/a	n/a	n/a	n/a	n/a	n/a	n/a	n/a	n/a	n/a	utils/practice/ScrambledFW_25M_NE_C.BMP	n/a	n/a	n/a	n/a	n/a	n/a	utils/practice/ScrambledBW_25M_NE_C.BMP	n/a	n/a	n/a	n/a	n/a	n/a	n/a	n/a	n/a	n/a	n/a	n/a	n/a	n/a	n/a	n/a	n/a	n/a	n/a	n/a	n/a	n/a	n/a	n/a	n/a	n/a	n/a	n/a	45	1	2023-03-15_18h03.21.239	test_final	2022.2.4	60.08734306734811	n/a
NimStim_Database/Images/08F_NE_O.BMP	utils/practice/ScrambledFW_15F_NE_O.BMP	utils/practice/ScrambledBW_15F_NE_O.BMP	utils/practice/fake_prac9.jpg	utils/practice/real_prac5.jpg	n/a	0.0	9.0	9.0	6.0	n/a	n/a	n/a	n/a	n/a	n/a	n/a	n/a	n/a	n/a	n/a	n/a	n/a	n/a	n/a	n/a	n/a	n/a	n/a	n/a	n/a	n/a	n/a	n/a	n/a	n/a	n/a	n/a	n/a	n/a	n/a	n/a	n/a	n/a	n/a	n/a	n/a	n/a	n/a	n/a	n/a	n/a	n/a	n/a	n/a	n/a	n/a	n/a	n/a	217.33461660007012	219.80032319994643	2.419999999999991	219.80032319994643	219.80032319994643	219.80032319994643	219.80032319994643	219.80032319994643	219.80032319994643	left	1.9352572998031972	221.763133100234	0.0038461997173726	223.7775608999655	223.7775608999655	2.0	1.1452337000519035	224.94292740011588	224.94292740011588	224.94292740011588	224.94292740011588	224.94292740011588	224.94292740011588	4.0	0.3252075002528727	225.29275010013956	n/a	n/a	n/a	n/a	n/a	n/a	n/a	n/a	n/a	n/a	n/a	n/a	n/a	n/a	n/a	n/a	n/a	n/a	n/a	n/a	n/a	n/a	n/a	n/a	n/a	n/a	n/a	n/a	n/a	utils/practice/ScrambledFW_15F_NE_O.BMP	n/a	n/a	n/a	n/a	n/a	n/a	utils/practice/ScrambledBW_15F_NE_O.BMP	n/a	n/a	n/a	n/a	n/a	n/a	n/a	n/a	n/a	n/a	n/a	n/a	n/a	n/a	n/a	n/a	n/a	n/a	n/a	n/a	n/a	n/a	n/a	n/a	n/a	n/a	n/a	n/a	45	1	2023-03-15_18h03.21.239	test_final	2022.2.4	60.08734306734811	n/a
NimStim_Database/Images/28M_NE_C.BMP	utils/practice/ScrambledFW_33M_NE_C.BMP	utils/practice/ScrambledBW_33M_NE_C.BMP	utils/practice/real_prac2.jpg	utils/practice/fake_prac16.jpg	n/a	0.0	10.0	10.0	13.0	n/a	n/a	n/a	n/a	n/a	n/a	n/a	n/a	n/a	n/a	n/a	n/a	n/a	n/a	n/a	n/a	n/a	n/a	n/a	n/a	n/a	n/a	n/a	n/a	n/a	n/a	n/a	n/a	n/a	n/a	n/a	n/a	n/a	n/a	n/a	n/a	n/a	n/a	n/a	n/a	n/a	n/a	n/a	n/a	n/a	n/a	n/a	n/a	n/a	227.30712840007615	229.8065472999588	2.45999999999999	229.8065472999588	229.8065472999588	229.8065472999588	229.8065472999588	229.8065472999588	229.8065472999588	right	1.311471600085497	231.13602240011096	0.0022668000310659	233.1504919999279	233.1504919999279	2.0	0.6579435998573899	233.83298410009596	233.83298410009596	233.83298410009596	233.83298410009596	233.83298410009596	233.83298410009596	4.0	0.3120052996091544	234.1659576999955	n/a	n/a	n/a	n/a	n/a	n/a	n/a	n/a	n/a	n/a	n/a	n/a	n/a	n/a	n/a	n/a	n/a	n/a	n/a	n/a	n/a	n/a	n/a	n/a	n/a	n/a	n/a	n/a	n/a	utils/practice/ScrambledFW_33M_NE_C.BMP	n/a	n/a	n/a	n/a	n/a	n/a	utils/practice/ScrambledBW_33M_NE_C.BMP	n/a	n/a	n/a	n/a	n/a	n/a	n/a	n/a	n/a	n/a	n/a	n/a	n/a	n/a	n/a	n/a	n/a	n/a	n/a	n/a	n/a	n/a	n/a	n/a	n/a	n/a	n/a	n/a	45	1	2023-03-15_18h03.21.239	test_final	2022.2.4	60.08734306734811	n/a
NimStim_Database/Images/28M_NE_O.BMP	utils/practice/ScrambledFW_12F_NE_C.BMP	utils/practice/ScrambledBW_12F_NE_C.BMP	utils/practice/fake_prac3.jpg	utils/practice/fake_prac10.jpg	n/a	0.0	11.0	11.0	5.0	n/a	n/a	n/a	n/a	n/a	n/a	n/a	n/a	n/a	n/a	n/a	n/a	n/a	n/a	n/a	n/a	n/a	n/a	n/a	n/a	n/a	n/a	n/a	n/a	n/a	n/a	n/a	n/a	n/a	n/a	n/a	n/a	n/a	n/a	n/a	n/a	n/a	n/a	n/a	n/a	n/a	n/a	n/a	n/a	n/a	n/a	n/a	n/a	n/a	236.1807619002648	238.42665020003915	2.2099999999999955	238.42665020003915	238.42665020003915	238.42665020003915	238.42665020003915	238.42665020003915	238.42665020003915	left	2.5169830000959337	240.9755049003288	0.0023324000649154	242.98986130021515	242.98986130021515	2.0	1.5498605002649128	244.57131060026583	244.57131060026583	244.57131060026583	244.57131060026583	244.57131060026583	244.57131060026583	4.0	0.4086041999980807	245.00446220021692	n/a	n/a	n/a	n/a	n/a	n/a	n/a	n/a	n/a	n/a	n/a	n/a	n/a	n/a	n/a	n/a	n/a	n/a	n/a	n/a	n/a	n/a	n/a	n/a	n/a	n/a	n/a	n/a	n/a	utils/practice/ScrambledFW_12F_NE_C.BMP	n/a	n/a	n/a	n/a	n/a	n/a	utils/practice/ScrambledBW_12F_NE_C.BMP	n/a	n/a	n/a	n/a	n/a	n/a	n/a	n/a	n/a	n/a	n/a	n/a	n/a	n/a	n/a	n/a	n/a	n/a	n/a	n/a	n/a	n/a	n/a	n/a	n/a	n/a	n/a	n/a	45	1	2023-03-15_18h03.21.239	test_final	2022.2.4	60.08734306734811	n/a
NimStim_Database/Images/23M_NE_C.BMP	utils/practice/ScrambledFW_28M_NE_C.BMP	utils/practice/ScrambledBW_28M_NE_C.BMP	utils/practice/real_prac8.jpg	utils/practice/real_prac3.jpg	n/a	0.0	12.0	12.0	11.0	n/a	n/a	n/a	n/a	n/a	n/a	n/a	n/a	n/a	n/a	n/a	n/a	n/a	n/a	n/a	n/a	n/a	n/a	n/a	n/a	n/a	n/a	n/a	n/a	n/a	n/a	n/a	n/a	n/a	n/a	n/a	n/a	n/a	n/a	n/a	n/a	n/a	n/a	n/a	n/a	n/a	n/a	n/a	n/a	n/a	n/a	n/a	n/a	n/a	247.01884610019624	249.171099900268	2.099999999999998	249.171099900268	249.171099900268	249.171099900268	249.171099900268	249.171099900268	249.171099900268	right	2.846801800187677	252.04651780007407	0.0038572996854782	254.0609503001906	254.0609503001906	3.0	3.0095832999795675	257.09081669989973	257.09081669989973	257.09081669989973	257.09081669989973	257.09081669989973	257.09081669989973	4.0	0.4878182001411915	257.60713030025363	n/a	n/a	n/a	n/a	n/a	n/a	n/a	n/a	n/a	n/a	n/a	n/a	n/a	n/a	n/a	n/a	n/a	n/a	n/a	n/a	n/a	n/a	n/a	n/a	n/a	n/a	n/a	n/a	n/a	utils/practice/ScrambledFW_28M_NE_C.BMP	n/a	n/a	n/a	n/a	n/a	n/a	utils/practice/ScrambledBW_28M_NE_C.BMP	n/a	n/a	n/a	n/a	n/a	n/a	n/a	n/a	n/a	n/a	n/a	n/a	n/a	n/a	n/a	n/a	n/a	n/a	n/a	n/a	n/a	n/a	n/a	n/a	n/a	n/a	n/a	n/a	45	1	2023-03-15_18h03.21.239	test_final	2022.2.4	60.08734306734811	n/a
NimStim_Database/Images/37M_NE_C.BMP	utils/practice/ScrambledFW_24M_NE_C.BMP	utils/practice/ScrambledBW_24M_NE_C.BMP	utils/practice/real_prac7.jpg	utils/practice/real_prac14.jpg	n/a	0.0	13.0	13.0	9.0	n/a	n/a	n/a	n/a	n/a	n/a	n/a	n/a	n/a	n/a	n/a	n/a	n/a	n/a	n/a	n/a	n/a	n/a	n/a	n/a	n/a	n/a	n/a	n/a	n/a	n/a	n/a	n/a	n/a	n/a	n/a	n/a	n/a	n/a	n/a	n/a	n/a	n/a	n/a	n/a	n/a	n/a	n/a	n/a	n/a	n/a	n/a	n/a	n/a	259.6213789000176	262.0857967999764	2.429999999999991	262.0857967999764	262.0857967999764	262.0857967999764	262.0857967999764	262.0857967999764	262.0857967999764	right	1.034930500201881	263.1510590999387	0.0041219997219741	265.1653420003131	265.1653420003131	3.0	0.3989011999219656	265.5815787003376	265.5815787003376	265.5815787003376	265.5815787003376	265.5815787003376	265.5815787003376	4.0	0.3832972999662161	265.99791830033064	n/a	n/a	n/a	n/a	n/a	n/a	n/a	n/a	n/a	n/a	n/a	n/a	n/a	n/a	n/a	n/a	n/a	n/a	n/a	n/a	n/a	n/a	n/a	n/a	n/a	n/a	n/a	n/a	n/a	utils/practice/ScrambledFW_24M_NE_C.BMP	n/a	n/a	n/a	n/a	n/a	n/a	utils/practice/ScrambledBW_24M_NE_C.BMP	n/a	n/a	n/a	n/a	n/a	n/a	n/a	n/a	n/a	n/a	n/a	n/a	n/a	n/a	n/a	n/a	n/a	n/a	n/a	n/a	n/a	n/a	n/a	n/a	n/a	n/a	n/a	n/a	45	1	2023-03-15_18h03.21.239	test_final	2022.2.4	60.08734306734811	n/a
NimStim_Database/Images/15F_NE_O.BMP	utils/practice/ScrambledFW_08F_NE_O.BMP	utils/practice/ScrambledBW_08F_NE_O.BMP	utils/practice/real_prac4.jpg	utils/practice/fake_prac12.jpg	n/a	0.0	14.0	14.0	3.0	n/a	n/a	n/a	n/a	n/a	n/a	n/a	n/a	n/a	n/a	n/a	n/a	n/a	n/a	n/a	n/a	n/a	n/a	n/a	n/a	n/a	n/a	n/a	n/a	n/a	n/a	n/a	n/a	n/a	n/a	n/a	n/a	n/a	n/a	n/a	n/a	n/a	n/a	n/a	n/a	n/a	n/a	n/a	n/a	n/a	n/a	n/a	n/a	n/a	268.01223690016195	270.5392219000496	2.4899999999999896	270.5392219000496	270.5392219000496	270.5392219000496	270.5392219000496	270.5392219000496	270.5392219000496	right	2.239508300088346	272.8070632000454	0.0024925000034272	274.821499499958	274.821499499958	3.0	0.3593232003040612	275.2044469001703	275.2044469001703	275.2044469001703	275.2044469001703	275.2044469001703	275.2044469001703	4.0	0.2174073001369834	275.45386249991134	n/a	n/a	n/a	n/a	n/a	n/a	n/a	n/a	n/a	n/a	n/a	n/a	n/a	n/a	n/a	n/a	n/a	n/a	n/a	n/a	n/a	n/a	n/a	n/a	n/a	n/a	n/a	n/a	n/a	utils/practice/ScrambledFW_08F_NE_O.BMP	n/a	n/a	n/a	n/a	n/a	n/a	utils/practice/ScrambledBW_08F_NE_O.BMP	n/a	n/a	n/a	n/a	n/a	n/a	n/a	n/a	n/a	n/a	n/a	n/a	n/a	n/a	n/a	n/a	n/a	n/a	n/a	n/a	n/a	n/a	n/a	n/a	n/a	n/a	n/a	n/a	45	1	2023-03-15_18h03.21.239	test_final	2022.2.4	60.08734306734811	n/a
NimStim_Database/Images/16F_NE_O.BMP	utils/practice/ScrambledFW_16F_NE_O.BMP	utils/practice/ScrambledBW_16F_NE_O.BMP	utils/practice/fake_prac6.jpg	utils/practice/fake_prac15.jpg	n/a	0.0	15.0	15.0	7.0	n/a	n/a	n/a	n/a	n/a	n/a	n/a	n/a	n/a	n/a	n/a	n/a	n/a	n/a	n/a	n/a	n/a	n/a	n/a	n/a	n/a	n/a	n/a	n/a	n/a	n/a	n/a	n/a	n/a	n/a	n/a	n/a	n/a	n/a	n/a	n/a	n/a	n/a	n/a	n/a	n/a	n/a	n/a	n/a	n/a	n/a	n/a	n/a	n/a	277.4687291001901	279.92879880033433	2.419999999999991	279.92879880033433	279.92879880033433	279.92879880033433	279.92879880033433	279.92879880033433	279.92879880033433	left	1.112025700043887	281.06457540020347	0.0022694002836942	283.0790790999308	283.0790790999308	2.0	0.5177349001169205	283.6285509001464	283.6285509001464	283.6285509001464	283.6285509001464	283.6285509001464	283.6285509001464	1.0	0.157585599925369	283.8220675000921	285.8258704999462	n/a	n/a	n/a	n/a	n/a	n/a	n/a	n/a	n/a	n/a	n/a	n/a	n/a	n/a	n/a	n/a	n/a	n/a	n/a	n/a	n/a	n/a	n/a	n/a	n/a	n/a	n/a	n/a	utils/practice/ScrambledFW_16F_NE_O.BMP	n/a	n/a	n/a	n/a	n/a	n/a	utils/practice/ScrambledBW_16F_NE_O.BMP	n/a	n/a	n/a	n/a	n/a	n/a	n/a	n/a	n/a	n/a	n/a	n/a	n/a	n/a	n/a	n/a	n/a	n/a	n/a	n/a	n/a	n/a	n/a	n/a	n/a	n/a	n/a	n/a	45	1	2023-03-15_18h03.21.239	test_final	2022.2.4	60.08734306734811	n/a
n/a	n/a	n/a	n/a	n/a	n/a	n/a	n/a	n/a	n/a	n/a	n/a	n/a	n/a	n/a	n/a	n/a	n/a	n/a	n/a	n/a	n/a	n/a	n/a	n/a	n/a	n/a	n/a	n/a	n/a	n/a	n/a	n/a	n/a	n/a	n/a	n/a	n/a	n/a	n/a	n/a	n/a	n/a	n/a	n/a	n/a	n/a	n/a	n/a	n/a	n/a	n/a	n/a	n/a	n/a	n/a	n/a	n/a	n/a	n/a	n/a	n/a	n/a	n/a	n/a	n/a	n/a	n/a	n/a	n/a	n/a	n/a	n/a	n/a	n/a	n/a	n/a	n/a	n/a	n/a	n/a	n/a	n/a	n/a	n/a	n/a	285.8258704999462	285.8258704999462	space	55.54229489993304	n/a	n/a	n/a	n/a	n/a	n/a	n/a	n/a	n/a	n/a	n/a	n/a	n/a	n/a	n/a	n/a	n/a	n/a	n/a	n/a	n/a	n/a	n/a	n/a	n/a	n/a	n/a	n/a	n/a	n/a	n/a	n/a	n/a	n/a	n/a	n/a	n/a	n/a	n/a	n/a	n/a	n/a	n/a	n/a	n/a	n/a	n/a	n/a	n/a	n/a	n/a	n/a	n/a	n/a	n/a	n/a	n/a	n/a	n/a	n/a	45	1	2023-03-15_18h03.21.239	test_final	2022.2.4	60.08734306734811	n/a
NimStim_Database/Images/15F_NE_O.BMP	utils/practice/ScrambledFW_08F_NE_O.BMP	utils/practice/ScrambledBW_08F_NE_O.BMP	utils/practice/real_prac4.jpg	utils/practice/fake_prac12.jpg	n/a	n/a	n/a	n/a	n/a	0.0	0.0	0.0	3.0	n/a	n/a	n/a	n/a	0.0	0.0	0.0	0.0	n/a	n/a	n/a	n/a	n/a	n/a	n/a	n/a	n/a	n/a	n/a	n/a	n/a	n/a	n/a	n/a	n/a	n/a	n/a	n/a	n/a	n/a	n/a	n/a	n/a	n/a	n/a	n/a	n/a	n/a	n/a	n/a	n/a	n/a	n/a	n/a	n/a	341.39840089995414	343.7379543003626	2.329999999999993	n/a	n/a	n/a	n/a	n/a	n/a	n/a	n/a	n/a	n/a	n/a	n/a	n/a	n/a	n/a	n/a	n/a	n/a	n/a	n/a	n/a	n/a	n/a	n/a	n/a	n/a	n/a	n/a	343.7379543003626	343.8788386001252	343.8788386001252	343.918823200278	343.918823200278	343.9908803002909	343.9908803002909	343.9908803002909	343.9908803002909	343.9908803002909	343.9908803002909	343.9908803002909	None	344.7242400003597	344.7242400003597	space	1.7672983999364078	n/a	n/a	n/a	n/a	n/a	n/a	n/a	utils/practice/ScrambledFW_08F_NE_O.BMP	n/a	n/a	n/a	n/a	n/a	n/a	utils/practice/ScrambledBW_08F_NE_O.BMP	n/a	n/a	n/a	n/a	n/a	n/a	n/a	n/a	n/a	n/a	n/a	n/a	n/a	n/a	n/a	n/a	n/a	n/a	n/a	n/a	n/a	n/a	n/a	n/a	n/a	n/a	n/a	n/a	45	1	2023-03-15_18h03.21.239	test_final	2022.2.4	60.08734306734811	n/a
NimStim_Database/Images/15F_NE_O.BMP	utils/practice/ScrambledFW_08F_NE_O.BMP	utils/practice/ScrambledBW_08F_NE_O.BMP	utils/practice/real_prac4.jpg	utils/practice/fake_prac12.jpg	n/a	n/a	n/a	n/a	n/a	0.0	0.0	0.0	3.0	n/a	n/a	n/a	n/a	n/a	n/a	n/a	n/a	n/a	n/a	n/a	n/a	n/a	n/a	n/a	n/a	n/a	n/a	n/a	n/a	n/a	n/a	n/a	n/a	n/a	n/a	n/a	n/a	n/a	n/a	n/a	n/a	n/a	n/a	n/a	n/a	n/a	n/a	n/a	n/a	n/a	n/a	n/a	n/a	n/a	n/a	n/a	n/a	n/a	n/a	n/a	n/a	n/a	n/a	n/a	n/a	n/a	n/a	n/a	n/a	n/a	n/a	n/a	n/a	n/a	n/a	n/a	n/a	n/a	n/a	346.5092589003034	n/a	n/a	n/a	n/a	n/a	n/a	n/a	n/a	n/a	n/a	n/a	n/a	n/a	n/a	n/a	n/a	n/a	n/a	n/a	n/a	n/a	n/a	n/a	n/a	n/a	n/a	n/a	n/a	n/a	utils/practice/ScrambledFW_08F_NE_O.BMP	n/a	n/a	n/a	n/a	n/a	n/a	utils/practice/ScrambledBW_08F_NE_O.BMP	n/a	n/a	n/a	n/a	n/a	n/a	n/a	n/a	n/a	n/a	n/a	n/a	n/a	n/a	n/a	n/a	n/a	n/a	n/a	n/a	n/a	n/a	n/a	n/a	n/a	n/a	n/a	n/a	45	1	2023-03-15_18h03.21.239	test_final	2022.2.4	60.08734306734811	n/a
NimStim_Database/Images/23M_NE_C.BMP	utils/practice/ScrambledFW_28M_NE_C.BMP	utils/practice/ScrambledBW_28M_NE_C.BMP	utils/practice/real_prac8.jpg	utils/practice/real_prac3.jpg	n/a	n/a	n/a	n/a	n/a	0.0	1.0	1.0	11.0	0.0	0.0	0.0	0.0	n/a	n/a	n/a	n/a	n/a	n/a	n/a	n/a	n/a	n/a	n/a	n/a	n/a	n/a	n/a	n/a	n/a	n/a	n/a	n/a	n/a	n/a	n/a	n/a	n/a	n/a	n/a	n/a	n/a	n/a	n/a	n/a	n/a	n/a	n/a	n/a	n/a	n/a	n/a	n/a	n/a	348.52359879994765	350.7069381000474	2.1699999999999964	n/a	n/a	n/a	n/a	n/a	n/a	n/a	n/a	n/a	n/a	n/a	n/a	n/a	n/a	n/a	n/a	n/a	n/a	n/a	n/a	n/a	n/a	n/a	n/a	n/a	n/a	n/a	n/a	350.7069381000474	350.8234892003238	350.8234892003238	350.85552950017154	350.85552950017154	350.91483450029045	350.91483450029045	350.91483450029045	350.91483450029045	350.91483450029045	350.91483450029045	350.91483450029045	left	n/a	n/a	n/a	n/a	0.264404899906367	351.2038667001761	352.20303800003603	n/a	n/a	n/a	n/a	utils/practice/ScrambledFW_28M_NE_C.BMP	n/a	n/a	n/a	n/a	n/a	n/a	utils/practice/ScrambledBW_28M_NE_C.BMP	n/a	n/a	n/a	n/a	n/a	n/a	n/a	n/a	n/a	n/a	n/a	n/a	n/a	n/a	n/a	n/a	n/a	n/a	n/a	n/a	n/a	n/a	n/a	n/a	n/a	n/a	n/a	n/a	45	1	2023-03-15_18h03.21.239	test_final	2022.2.4	60.08734306734811	n/a
NimStim_Database/Images/23M_NE_C.BMP	utils/practice/ScrambledFW_28M_NE_C.BMP	utils/practice/ScrambledBW_28M_NE_C.BMP	utils/practice/real_prac8.jpg	utils/practice/real_prac3.jpg	n/a	n/a	n/a	n/a	n/a	0.0	1.0	1.0	11.0	n/a	n/a	n/a	n/a	n/a	n/a	n/a	n/a	0.0	0.0	0.0	0.0	n/a	n/a	n/a	n/a	n/a	n/a	n/a	n/a	n/a	n/a	n/a	n/a	n/a	n/a	n/a	n/a	n/a	n/a	n/a	n/a	n/a	n/a	n/a	n/a	n/a	n/a	n/a	n/a	n/a	n/a	n/a	n/a	n/a	n/a	n/a	n/a	n/a	n/a	n/a	n/a	n/a	n/a	n/a	n/a	n/a	n/a	352.20303800003603	352.20303800003603	2.0	1.922722099814564	354.1508071999997	354.1508071999997	354.1508071999997	354.1508071999997	354.1508071999997	354.1508071999997	1.0	0.6896068002097309	n/a	n/a	n/a	n/a	n/a	n/a	n/a	n/a	n/a	n/a	n/a	n/a	n/a	n/a	n/a	n/a	n/a	n/a	n/a	n/a	n/a	n/a	n/a	n/a	n/a	n/a	n/a	n/a	n/a	n/a	utils/practice/ScrambledFW_28M_NE_C.BMP	n/a	n/a	n/a	n/a	n/a	n/a	utils/practice/ScrambledBW_28M_NE_C.BMP	n/a	n/a	n/a	n/a	n/a	n/a	n/a	n/a	n/a	n/a	n/a	n/a	n/a	n/a	n/a	n/a	n/a	n/a	n/a	n/a	n/a	n/a	n/a	n/a	n/a	n/a	n/a	n/a	45	1	2023-03-15_18h03.21.239	test_final	2022.2.4	60.08734306734811	n/a
NimStim_Database/Images/23M_NE_C.BMP	utils/practice/ScrambledFW_28M_NE_C.BMP	utils/practice/ScrambledBW_28M_NE_C.BMP	utils/practice/real_prac8.jpg	utils/practice/real_prac3.jpg	n/a	n/a	n/a	n/a	n/a	0.0	1.0	1.0	11.0	n/a	n/a	n/a	n/a	n/a	n/a	n/a	n/a	n/a	n/a	n/a	n/a	n/a	n/a	n/a	n/a	n/a	n/a	n/a	n/a	n/a	n/a	n/a	n/a	n/a	n/a	n/a	n/a	n/a	n/a	n/a	n/a	n/a	n/a	n/a	n/a	n/a	n/a	n/a	n/a	n/a	n/a	n/a	n/a	n/a	n/a	n/a	n/a	n/a	n/a	n/a	n/a	n/a	n/a	n/a	n/a	n/a	n/a	n/a	n/a	n/a	n/a	n/a	n/a	n/a	n/a	n/a	n/a	n/a	n/a	354.8669413002208	n/a	n/a	n/a	n/a	n/a	n/a	n/a	n/a	n/a	n/a	n/a	n/a	n/a	n/a	n/a	n/a	n/a	n/a	n/a	n/a	n/a	n/a	n/a	n/a	n/a	n/a	n/a	n/a	n/a	utils/practice/ScrambledFW_28M_NE_C.BMP	n/a	n/a	n/a	n/a	n/a	n/a	utils/practice/ScrambledBW_28M_NE_C.BMP	n/a	n/a	n/a	n/a	n/a	n/a	n/a	n/a	n/a	n/a	n/a	n/a	n/a	n/a	n/a	n/a	n/a	n/a	n/a	n/a	n/a	n/a	n/a	n/a	n/a	n/a	n/a	n/a	45	1	2023-03-15_18h03.21.239	test_final	2022.2.4	60.08734306734811	n/a
NimStim_Database/Images/06F_NE_O.BMP	utils/practice/ScrambledFW_06F_NE_O.BMP	utils/practice/ScrambledBW_06F_NE_O.BMP	utils/practice/fake_prac2.jpg	utils/practice/real_prac15.jpg	n/a	n/a	n/a	n/a	n/a	0.0	2.0	2.0	2.0	n/a	n/a	n/a	n/a	0.0	0.0	0.0	0.0	n/a	n/a	n/a	n/a	n/a	n/a	n/a	n/a	n/a	n/a	n/a	n/a	n/a	n/a	n/a	n/a	n/a	n/a	n/a	n/a	n/a	n/a	n/a	n/a	n/a	n/a	n/a	n/a	n/a	n/a	n/a	n/a	n/a	n/a	n/a	n/a	n/a	356.88117500022054	359.3141799001023	2.419999999999991	n/a	n/a	n/a	n/a	n/a	n/a	n/a	n/a	n/a	n/a	n/a	n/a	n/a	n/a	n/a	n/a	n/a	n/a	n/a	n/a	n/a	n/a	n/a	n/a	n/a	n/a	n/a	n/a	359.3141799001023	359.4483924000524	359.4483924000524	359.48045010026544	359.48045010026544	359.5371872000396	359.5371872000396	359.5371872000396	359.5371872000396	359.5371872000396	359.5371872000396	359.5371872000396	None	360.27733230032027	360.27733230032027	space	1.1245732996612787	n/a	n/a	n/a	n/a	n/a	n/a	n/a	utils/practice/ScrambledFW_06F_NE_O.BMP	n/a	n/a	n/a	n/a	n/a	n/a	utils/practice/ScrambledBW_06F_NE_O.BMP	n/a	n/a	n/a	n/a	n/a	n/a	n/a	n/a	n/a	n/a	n/a	n/a	n/a	n/a	n/a	n/a	n/a	n/a	n/a	n/a	n/a	n/a	n/a	n/a	n/a	n/a	n/a	n/a	45	1	2023-03-15_18h03.21.239	test_final	2022.2.4	60.08734306734811	n/a
NimStim_Database/Images/06F_NE_O.BMP	utils/practice/ScrambledFW_06F_NE_O.BMP	utils/practice/ScrambledBW_06F_NE_O.BMP	utils/practice/fake_prac2.jpg	utils/practice/real_prac15.jpg	n/a	n/a	n/a	n/a	n/a	0.0	2.0	2.0	2.0	n/a	n/a	n/a	n/a	n/a	n/a	n/a	n/a	n/a	n/a	n/a	n/a	n/a	n/a	n/a	n/a	n/a	n/a	n/a	n/a	n/a	n/a	n/a	n/a	n/a	n/a	n/a	n/a	n/a	n/a	n/a	n/a	n/a	n/a	n/a	n/a	n/a	n/a	n/a	n/a	n/a	n/a	n/a	n/a	n/a	n/a	n/a	n/a	n/a	n/a	n/a	n/a	n/a	n/a	n/a	n/a	n/a	n/a	n/a	n/a	n/a	n/a	n/a	n/a	n/a	n/a	n/a	n/a	n/a	n/a	361.4262916999869	n/a	n/a	n/a	n/a	n/a	n/a	n/a	n/a	n/a	n/a	n/a	n/a	n/a	n/a	n/a	n/a	n/a	n/a	n/a	n/a	n/a	n/a	n/a	n/a	n/a	n/a	n/a	n/a	n/a	utils/practice/ScrambledFW_06F_NE_O.BMP	n/a	n/a	n/a	n/a	n/a	n/a	utils/practice/ScrambledBW_06F_NE_O.BMP	n/a	n/a	n/a	n/a	n/a	n/a	n/a	n/a	n/a	n/a	n/a	n/a	n/a	n/a	n/a	n/a	n/a	n/a	n/a	n/a	n/a	n/a	n/a	n/a	n/a	n/a	n/a	n/a	45	1	2023-03-15_18h03.21.239	test_final	2022.2.4	60.08734306734811	n/a
NimStim_Database/Images/03F_NE_O.BMP	utils/practice/ScrambledFW_23M_NE_C.BMP	utils/practice/ScrambledBW_23M_NE_C.BMP	utils/practice/fake_prac7.jpg	utils/practice/real_prac6.jpg	n/a	n/a	n/a	n/a	n/a	0.0	3.0	3.0	8.0	0.0	0.0	0.0	0.0	n/a	n/a	n/a	n/a	n/a	n/a	n/a	n/a	n/a	n/a	n/a	n/a	n/a	n/a	n/a	n/a	n/a	n/a	n/a	n/a	n/a	n/a	n/a	n/a	n/a	n/a	n/a	n/a	n/a	n/a	n/a	n/a	n/a	n/a	n/a	n/a	n/a	n/a	n/a	n/a	n/a	363.4404420000501	365.8575272001326	2.3999999999999915	n/a	n/a	n/a	n/a	n/a	n/a	n/a	n/a	n/a	n/a	n/a	n/a	n/a	n/a	n/a	n/a	n/a	n/a	n/a	n/a	n/a	n/a	n/a	n/a	n/a	n/a	n/a	n/a	365.8575272001326	365.9546334003098	365.9546334003098	365.9901923001744	365.9901923001744	366.04946580016986	366.04946580016986	366.04946580016986	366.04946580016986	366.04946580016986	366.04946580016986	366.04946580016986	left	n/a	n/a	n/a	n/a	0.6083442000672221	366.6872531999834	n/a	n/a	n/a	n/a	n/a	utils/practice/ScrambledFW_23M_NE_C.BMP	n/a	n/a	n/a	n/a	n/a	n/a	utils/practice/ScrambledBW_23M_NE_C.BMP	n/a	n/a	n/a	n/a	n/a	n/a	n/a	n/a	n/a	n/a	n/a	n/a	n/a	n/a	n/a	n/a	n/a	n/a	n/a	n/a	n/a	n/a	n/a	n/a	n/a	n/a	n/a	n/a	45	1	2023-03-15_18h03.21.239	test_final	2022.2.4	60.08734306734811	n/a
NimStim_Database/Images/03F_NE_O.BMP	utils/practice/ScrambledFW_23M_NE_C.BMP	utils/practice/ScrambledBW_23M_NE_C.BMP	utils/practice/fake_prac7.jpg	utils/practice/real_prac6.jpg	n/a	n/a	n/a	n/a	n/a	0.0	3.0	3.0	8.0	n/a	n/a	n/a	n/a	n/a	n/a	n/a	n/a	0.0	0.0	0.0	0.0	n/a	n/a	n/a	n/a	n/a	n/a	n/a	n/a	n/a	n/a	n/a	n/a	n/a	n/a	n/a	n/a	n/a	n/a	n/a	n/a	n/a	n/a	n/a	n/a	n/a	n/a	n/a	n/a	n/a	n/a	n/a	n/a	n/a	n/a	n/a	n/a	n/a	n/a	n/a	n/a	n/a	n/a	n/a	n/a	n/a	n/a	367.7026080000214	367.7026080000214	1.0	1.6278812000527978	369.3507459000684	369.3507459000684	369.3507459000684	369.3507459000684	369.3507459000684	369.3507459000684	4.0	1.0953028001822531	n/a	n/a	n/a	n/a	n/a	n/a	n/a	n/a	n/a	n/a	n/a	n/a	n/a	n/a	n/a	n/a	n/a	n/a	n/a	n/a	n/a	n/a	n/a	n/a	n/a	n/a	n/a	n/a	n/a	n/a	utils/practice/ScrambledFW_23M_NE_C.BMP	n/a	n/a	n/a	n/a	n/a	n/a	utils/practice/ScrambledBW_23M_NE_C.BMP	n/a	n/a	n/a	n/a	n/a	n/a	n/a	n/a	n/a	n/a	n/a	n/a	n/a	n/a	n/a	n/a	n/a	n/a	n/a	n/a	n/a	n/a	n/a	n/a	n/a	n/a	n/a	n/a	45	1	2023-03-15_18h03.21.239	test_final	2022.2.4	60.08734306734811	n/a
NimStim_Database/Images/03F_NE_O.BMP	utils/practice/ScrambledFW_23M_NE_C.BMP	utils/practice/ScrambledBW_23M_NE_C.BMP	utils/practice/fake_prac7.jpg	utils/practice/real_prac6.jpg	n/a	n/a	n/a	n/a	n/a	0.0	3.0	3.0	8.0	n/a	n/a	n/a	n/a	n/a	n/a	n/a	n/a	n/a	n/a	n/a	n/a	n/a	n/a	n/a	n/a	n/a	n/a	n/a	n/a	n/a	n/a	n/a	n/a	n/a	n/a	n/a	n/a	n/a	n/a	n/a	n/a	n/a	n/a	n/a	n/a	n/a	n/a	n/a	n/a	n/a	n/a	n/a	n/a	n/a	n/a	n/a	n/a	n/a	n/a	n/a	n/a	n/a	n/a	n/a	n/a	n/a	n/a	n/a	n/a	n/a	n/a	n/a	n/a	n/a	n/a	n/a	n/a	n/a	n/a	370.466423000209	n/a	n/a	n/a	n/a	n/a	n/a	n/a	n/a	n/a	n/a	n/a	n/a	n/a	n/a	n/a	n/a	n/a	n/a	n/a	n/a	n/a	n/a	n/a	n/a	n/a	n/a	n/a	n/a	n/a	utils/practice/ScrambledFW_23M_NE_C.BMP	n/a	n/a	n/a	n/a	n/a	n/a	utils/practice/ScrambledBW_23M_NE_C.BMP	n/a	n/a	n/a	n/a	n/a	n/a	n/a	n/a	n/a	n/a	n/a	n/a	n/a	n/a	n/a	n/a	n/a	n/a	n/a	n/a	n/a	n/a	n/a	n/a	n/a	n/a	n/a	n/a	45	1	2023-03-15_18h03.21.239	test_final	2022.2.4	60.08734306734811	n/a
NimStim_Database/Images/08F_NE_O.BMP	utils/practice/ScrambledFW_15F_NE_O.BMP	utils/practice/ScrambledBW_15F_NE_O.BMP	utils/practice/fake_prac9.jpg	utils/practice/real_prac5.jpg	n/a	n/a	n/a	n/a	n/a	0.0	4.0	4.0	6.0	0.0	0.0	0.0	0.0	n/a	n/a	n/a	n/a	n/a	n/a	n/a	n/a	n/a	n/a	n/a	n/a	n/a	n/a	n/a	n/a	n/a	n/a	n/a	n/a	n/a	n/a	n/a	n/a	n/a	n/a	n/a	n/a	n/a	n/a	n/a	n/a	n/a	n/a	n/a	n/a	n/a	n/a	n/a	n/a	n/a	372.4806702001952	374.83147659990937	2.3399999999999928	n/a	n/a	n/a	n/a	n/a	n/a	n/a	n/a	n/a	n/a	n/a	n/a	n/a	n/a	n/a	n/a	n/a	n/a	n/a	n/a	n/a	n/a	n/a	n/a	n/a	n/a	n/a	n/a	374.83147659990937	374.96514469990507	374.96514469990507	374.9949248000048	374.9949248000048	375.05414800019935	375.05414800019935	375.05414800019935	375.05414800019935	375.05414800019935	375.05414800019935	375.05414800019935	right	n/a	n/a	n/a	n/a	0.6830506999976933	375.7606307002716	n/a	n/a	n/a	n/a	n/a	utils/practice/ScrambledFW_15F_NE_O.BMP	n/a	n/a	n/a	n/a	n/a	n/a	utils/practice/ScrambledBW_15F_NE_O.BMP	n/a	n/a	n/a	n/a	n/a	n/a	n/a	n/a	n/a	n/a	n/a	n/a	n/a	n/a	n/a	n/a	n/a	n/a	n/a	n/a	n/a	n/a	n/a	n/a	n/a	n/a	n/a	n/a	45	1	2023-03-15_18h03.21.239	test_final	2022.2.4	60.08734306734811	n/a
NimStim_Database/Images/08F_NE_O.BMP	utils/practice/ScrambledFW_15F_NE_O.BMP	utils/practice/ScrambledBW_15F_NE_O.BMP	utils/practice/fake_prac9.jpg	utils/practice/real_prac5.jpg	n/a	n/a	n/a	n/a	n/a	0.0	4.0	4.0	6.0	n/a	n/a	n/a	n/a	n/a	n/a	n/a	n/a	0.0	0.0	0.0	0.0	n/a	n/a	n/a	n/a	n/a	n/a	n/a	n/a	n/a	n/a	n/a	n/a	n/a	n/a	n/a	n/a	n/a	n/a	n/a	n/a	n/a	n/a	n/a	n/a	n/a	n/a	n/a	n/a	n/a	n/a	n/a	n/a	n/a	n/a	n/a	n/a	n/a	n/a	n/a	n/a	n/a	n/a	n/a	n/a	n/a	n/a	376.7759144003503	376.7759144003503	3.0	2.168523100204766	378.9737646002322	378.9737646002322	378.9737646002322	378.9737646002322	378.9737646002322	378.9737646002322	1.0	0.3953499998897314	n/a	n/a	n/a	n/a	n/a	n/a	n/a	n/a	n/a	n/a	n/a	n/a	n/a	n/a	n/a	n/a	n/a	n/a	n/a	n/a	n/a	n/a	n/a	n/a	n/a	n/a	n/a	n/a	n/a	n/a	utils/practice/ScrambledFW_15F_NE_O.BMP	n/a	n/a	n/a	n/a	n/a	n/a	utils/practice/ScrambledBW_15F_NE_O.BMP	n/a	n/a	n/a	n/a	n/a	n/a	n/a	n/a	n/a	n/a	n/a	n/a	n/a	n/a	n/a	n/a	n/a	n/a	n/a	n/a	n/a	n/a	n/a	n/a	n/a	n/a	n/a	n/a	45	1	2023-03-15_18h03.21.239	test_final	2022.2.4	60.08734306734811	n/a
NimStim_Database/Images/08F_NE_O.BMP	utils/practice/ScrambledFW_15F_NE_O.BMP	utils/practice/ScrambledBW_15F_NE_O.BMP	utils/practice/fake_prac9.jpg	utils/practice/real_prac5.jpg	n/a	n/a	n/a	n/a	n/a	0.0	4.0	4.0	6.0	n/a	n/a	n/a	n/a	n/a	n/a	n/a	n/a	n/a	n/a	n/a	n/a	n/a	n/a	n/a	n/a	n/a	n/a	n/a	n/a	n/a	n/a	n/a	n/a	n/a	n/a	n/a	n/a	n/a	n/a	n/a	n/a	n/a	n/a	n/a	n/a	n/a	n/a	n/a	n/a	n/a	n/a	n/a	n/a	n/a	n/a	n/a	n/a	n/a	n/a	n/a	n/a	n/a	n/a	n/a	n/a	n/a	n/a	n/a	n/a	n/a	n/a	n/a	n/a	n/a	n/a	n/a	n/a	n/a	n/a	379.3899098001421	n/a	n/a	n/a	n/a	n/a	n/a	n/a	n/a	n/a	n/a	n/a	n/a	n/a	n/a	n/a	n/a	n/a	n/a	n/a	n/a	n/a	n/a	n/a	n/a	n/a	n/a	n/a	n/a	n/a	utils/practice/ScrambledFW_15F_NE_O.BMP	n/a	n/a	n/a	n/a	n/a	n/a	utils/practice/ScrambledBW_15F_NE_O.BMP	n/a	n/a	n/a	n/a	n/a	n/a	n/a	n/a	n/a	n/a	n/a	n/a	n/a	n/a	n/a	n/a	n/a	n/a	n/a	n/a	n/a	n/a	n/a	n/a	n/a	n/a	n/a	n/a	45	1	2023-03-15_18h03.21.239	test_final	2022.2.4	60.08734306734811	n/a
NimStim_Database/Images/01F_NE_O.BMP	utils/practice/ScrambledFW_28M_NE_O.BMP	utils/practice/ScrambledBW_28M_NE_O.BMP	utils/practice/fake_prac14.jpg	utils/practice/fake_prac8.jpg	n/a	n/a	n/a	n/a	n/a	0.0	5.0	5.0	12.0	0.0	0.0	0.0	0.0	n/a	n/a	n/a	n/a	n/a	n/a	n/a	n/a	n/a	n/a	n/a	n/a	n/a	n/a	n/a	n/a	n/a	n/a	n/a	n/a	n/a	n/a	n/a	n/a	n/a	n/a	n/a	n/a	n/a	n/a	n/a	n/a	n/a	n/a	n/a	n/a	n/a	n/a	n/a	n/a	n/a	381.4044185001403	383.67024050001055	2.2499999999999947	n/a	n/a	n/a	n/a	n/a	n/a	n/a	n/a	n/a	n/a	n/a	n/a	n/a	n/a	n/a	n/a	n/a	n/a	n/a	n/a	n/a	n/a	n/a	n/a	n/a	n/a	n/a	n/a	383.67024050001055	383.78504560003057	383.78504560003057	383.8203044999391	383.8203044999391	383.8870705002919	383.8870705002919	383.8870705002919	383.8870705002919	383.8870705002919	383.8870705002919	383.8870705002919	left	n/a	n/a	n/a	n/a	0.6266550999134779	384.5342879001983	n/a	n/a	n/a	n/a	n/a	utils/practice/ScrambledFW_28M_NE_O.BMP	n/a	n/a	n/a	n/a	n/a	n/a	utils/practice/ScrambledBW_28M_NE_O.BMP	n/a	n/a	n/a	n/a	n/a	n/a	n/a	n/a	n/a	n/a	n/a	n/a	n/a	n/a	n/a	n/a	n/a	n/a	n/a	n/a	n/a	n/a	n/a	n/a	n/a	n/a	n/a	n/a	45	1	2023-03-15_18h03.21.239	test_final	2022.2.4	60.08734306734811	n/a
NimStim_Database/Images/01F_NE_O.BMP	utils/practice/ScrambledFW_28M_NE_O.BMP	utils/practice/ScrambledBW_28M_NE_O.BMP	utils/practice/fake_prac14.jpg	utils/practice/fake_prac8.jpg	n/a	n/a	n/a	n/a	n/a	0.0	5.0	5.0	12.0	n/a	n/a	n/a	n/a	n/a	n/a	n/a	n/a	0.0	0.0	0.0	0.0	n/a	n/a	n/a	n/a	n/a	n/a	n/a	n/a	n/a	n/a	n/a	n/a	n/a	n/a	n/a	n/a	n/a	n/a	n/a	n/a	n/a	n/a	n/a	n/a	n/a	n/a	n/a	n/a	n/a	n/a	n/a	n/a	n/a	n/a	n/a	n/a	n/a	n/a	n/a	n/a	n/a	n/a	n/a	n/a	n/a	n/a	385.5497286999598	385.5497286999598	2.0	0.8915606001392007	386.4653253001161	386.4653253001161	386.4653253001161	386.4653253001161	386.4653253001161	386.4653253001161	4.0	0.2084916001185774	n/a	n/a	n/a	n/a	n/a	n/a	n/a	n/a	n/a	n/a	n/a	n/a	n/a	n/a	n/a	n/a	n/a	n/a	n/a	n/a	n/a	n/a	n/a	n/a	n/a	n/a	n/a	n/a	n/a	n/a	utils/practice/ScrambledFW_28M_NE_O.BMP	n/a	n/a	n/a	n/a	n/a	n/a	utils/practice/ScrambledBW_28M_NE_O.BMP	n/a	n/a	n/a	n/a	n/a	n/a	n/a	n/a	n/a	n/a	n/a	n/a	n/a	n/a	n/a	n/a	n/a	n/a	n/a	n/a	n/a	n/a	n/a	n/a	n/a	n/a	n/a	n/a	45	1	2023-03-15_18h03.21.239	test_final	2022.2.4	60.08734306734811	n/a
NimStim_Database/Images/01F_NE_O.BMP	utils/practice/ScrambledFW_28M_NE_O.BMP	utils/practice/ScrambledBW_28M_NE_O.BMP	utils/practice/fake_prac14.jpg	utils/practice/fake_prac8.jpg	n/a	n/a	n/a	n/a	n/a	0.0	5.0	5.0	12.0	n/a	n/a	n/a	n/a	n/a	n/a	n/a	n/a	n/a	n/a	n/a	n/a	n/a	n/a	n/a	n/a	n/a	n/a	n/a	n/a	n/a	n/a	n/a	n/a	n/a	n/a	n/a	n/a	n/a	n/a	n/a	n/a	n/a	n/a	n/a	n/a	n/a	n/a	n/a	n/a	n/a	n/a	n/a	n/a	n/a	n/a	n/a	n/a	n/a	n/a	n/a	n/a	n/a	n/a	n/a	n/a	n/a	n/a	n/a	n/a	n/a	n/a	n/a	n/a	n/a	n/a	n/a	n/a	n/a	n/a	386.6983525999822	n/a	n/a	n/a	n/a	n/a	n/a	n/a	n/a	n/a	n/a	n/a	n/a	n/a	n/a	n/a	n/a	n/a	n/a	n/a	n/a	n/a	n/a	n/a	n/a	n/a	n/a	n/a	n/a	n/a	utils/practice/ScrambledFW_28M_NE_O.BMP	n/a	n/a	n/a	n/a	n/a	n/a	utils/practice/ScrambledBW_28M_NE_O.BMP	n/a	n/a	n/a	n/a	n/a	n/a	n/a	n/a	n/a	n/a	n/a	n/a	n/a	n/a	n/a	n/a	n/a	n/a	n/a	n/a	n/a	n/a	n/a	n/a	n/a	n/a	n/a	n/a	45	1	2023-03-15_18h03.21.239	test_final	2022.2.4	60.08734306734811	n/a
NimStim_Database/Images/16F_NE_O.BMP	utils/practice/ScrambledFW_16F_NE_O.BMP	utils/practice/ScrambledBW_16F_NE_O.BMP	utils/practice/fake_prac6.jpg	utils/practice/fake_prac15.jpg	n/a	n/a	n/a	n/a	n/a	0.0	6.0	6.0	7.0	0.0	0.0	0.0	0.0	n/a	n/a	n/a	n/a	n/a	n/a	n/a	n/a	n/a	n/a	n/a	n/a	n/a	n/a	n/a	n/a	n/a	n/a	n/a	n/a	n/a	n/a	n/a	n/a	n/a	n/a	n/a	n/a	n/a	n/a	n/a	n/a	n/a	n/a	n/a	n/a	n/a	n/a	n/a	n/a	n/a	388.7129290001467	390.7966682999395	2.0799999999999983	n/a	n/a	n/a	n/a	n/a	n/a	n/a	n/a	n/a	n/a	n/a	n/a	n/a	n/a	n/a	n/a	n/a	n/a	n/a	n/a	n/a	n/a	n/a	n/a	n/a	n/a	n/a	n/a	390.7966682999395	390.8986798999831	390.8986798999831	390.92930090008304	390.92930090008304	390.9950697999448	390.9950697999448	390.9950697999448	390.9950697999448	390.9950697999448	390.9950697999448	390.9950697999448	left	n/a	n/a	n/a	n/a	0.6561576002277434	391.6764732003212	n/a	n/a	n/a	n/a	n/a	utils/practice/ScrambledFW_16F_NE_O.BMP	n/a	n/a	n/a	n/a	n/a	n/a	utils/practice/ScrambledBW_16F_NE_O.BMP	n/a	n/a	n/a	n/a	n/a	n/a	n/a	n/a	n/a	n/a	n/a	n/a	n/a	n/a	n/a	n/a	n/a	n/a	n/a	n/a	n/a	n/a	n/a	n/a	n/a	n/a	n/a	n/a	45	1	2023-03-15_18h03.21.239	test_final	2022.2.4	60.08734306734811	n/a
NimStim_Database/Images/16F_NE_O.BMP	utils/practice/ScrambledFW_16F_NE_O.BMP	utils/practice/ScrambledBW_16F_NE_O.BMP	utils/practice/fake_prac6.jpg	utils/practice/fake_prac15.jpg	n/a	n/a	n/a	n/a	n/a	0.0	6.0	6.0	7.0	n/a	n/a	n/a	n/a	n/a	n/a	n/a	n/a	0.0	0.0	0.0	0.0	n/a	n/a	n/a	n/a	n/a	n/a	n/a	n/a	n/a	n/a	n/a	n/a	n/a	n/a	n/a	n/a	n/a	n/a	n/a	n/a	n/a	n/a	n/a	n/a	n/a	n/a	n/a	n/a	n/a	n/a	n/a	n/a	n/a	n/a	n/a	n/a	n/a	n/a	n/a	n/a	n/a	n/a	n/a	n/a	n/a	n/a	392.69200489996	392.69200489996	2.0	2.408216100186109	395.1226405003108	395.1226405003108	395.1226405003108	395.1226405003108	395.1226405003108	395.1226405003108	4.0	0.4171020002104342	n/a	n/a	n/a	n/a	n/a	n/a	n/a	n/a	n/a	n/a	n/a	n/a	n/a	n/a	n/a	n/a	n/a	n/a	n/a	n/a	n/a	n/a	n/a	n/a	n/a	n/a	n/a	n/a	n/a	n/a	utils/practice/ScrambledFW_16F_NE_O.BMP	n/a	n/a	n/a	n/a	n/a	n/a	utils/practice/ScrambledBW_16F_NE_O.BMP	n/a	n/a	n/a	n/a	n/a	n/a	n/a	n/a	n/a	n/a	n/a	n/a	n/a	n/a	n/a	n/a	n/a	n/a	n/a	n/a	n/a	n/a	n/a	n/a	n/a	n/a	n/a	n/a	45	1	2023-03-15_18h03.21.239	test_final	2022.2.4	60.08734306734811	n/a
NimStim_Database/Images/16F_NE_O.BMP	utils/practice/ScrambledFW_16F_NE_O.BMP	utils/practice/ScrambledBW_16F_NE_O.BMP	utils/practice/fake_prac6.jpg	utils/practice/fake_prac15.jpg	n/a	n/a	n/a	n/a	n/a	0.0	6.0	6.0	7.0	n/a	n/a	n/a	n/a	n/a	n/a	n/a	n/a	n/a	n/a	n/a	n/a	n/a	n/a	n/a	n/a	n/a	n/a	n/a	n/a	n/a	n/a	n/a	n/a	n/a	n/a	n/a	n/a	n/a	n/a	n/a	n/a	n/a	n/a	n/a	n/a	n/a	n/a	n/a	n/a	n/a	n/a	n/a	n/a	n/a	n/a	n/a	n/a	n/a	n/a	n/a	n/a	n/a	n/a	n/a	n/a	n/a	n/a	n/a	n/a	n/a	n/a	n/a	n/a	n/a	n/a	n/a	n/a	n/a	n/a	395.5721960999072	n/a	n/a	n/a	n/a	n/a	n/a	n/a	n/a	n/a	n/a	n/a	n/a	n/a	n/a	n/a	n/a	n/a	n/a	n/a	n/a	n/a	n/a	n/a	n/a	n/a	n/a	n/a	n/a	n/a	utils/practice/ScrambledFW_16F_NE_O.BMP	n/a	n/a	n/a	n/a	n/a	n/a	utils/practice/ScrambledBW_16F_NE_O.BMP	n/a	n/a	n/a	n/a	n/a	n/a	n/a	n/a	n/a	n/a	n/a	n/a	n/a	n/a	n/a	n/a	n/a	n/a	n/a	n/a	n/a	n/a	n/a	n/a	n/a	n/a	n/a	n/a	45	1	2023-03-15_18h03.21.239	test_final	2022.2.4	60.08734306734811	n/a
NimStim_Database/Images/24M_NE_C.BMP	utils/practice/ScrambledFW_43M_NE_O.BMP	utils/practice/ScrambledBW_43M_NE_O.BMP	utils/practice/fake_prac13.jpg	utils/practice/real_prac12.jpg	n/a	n/a	n/a	n/a	n/a	0.0	7.0	7.0	15.0	0.0	0.0	0.0	0.0	n/a	n/a	n/a	n/a	n/a	n/a	n/a	n/a	n/a	n/a	n/a	n/a	n/a	n/a	n/a	n/a	n/a	n/a	n/a	n/a	n/a	n/a	n/a	n/a	n/a	n/a	n/a	n/a	n/a	n/a	n/a	n/a	n/a	n/a	n/a	n/a	n/a	n/a	n/a	n/a	n/a	397.5865718000568	399.9693769002333	2.379999999999992	n/a	n/a	n/a	n/a	n/a	n/a	n/a	n/a	n/a	n/a	n/a	n/a	n/a	n/a	n/a	n/a	n/a	n/a	n/a	n/a	n/a	n/a	n/a	n/a	n/a	n/a	n/a	n/a	399.9693769002333	400.070462200325	400.070462200325	400.1020406000316	400.1020406000316	400.1603701002896	400.1603701002896	400.1603701002896	400.1603701002896	400.1603701002896	400.1603701002896	400.1603701002896	left	n/a	n/a	n/a	n/a	0.5905861998908222	400.78312310017645	n/a	n/a	n/a	n/a	n/a	utils/practice/ScrambledFW_43M_NE_O.BMP	n/a	n/a	n/a	n/a	n/a	n/a	utils/practice/ScrambledBW_43M_NE_O.BMP	n/a	n/a	n/a	n/a	n/a	n/a	n/a	n/a	n/a	n/a	n/a	n/a	n/a	n/a	n/a	n/a	n/a	n/a	n/a	n/a	n/a	n/a	n/a	n/a	n/a	n/a	n/a	n/a	45	1	2023-03-15_18h03.21.239	test_final	2022.2.4	60.08734306734811	n/a
NimStim_Database/Images/24M_NE_C.BMP	utils/practice/ScrambledFW_43M_NE_O.BMP	utils/practice/ScrambledBW_43M_NE_O.BMP	utils/practice/fake_prac13.jpg	utils/practice/real_prac12.jpg	n/a	n/a	n/a	n/a	n/a	0.0	7.0	7.0	15.0	n/a	n/a	n/a	n/a	n/a	n/a	n/a	n/a	0.0	0.0	0.0	0.0	n/a	n/a	n/a	n/a	n/a	n/a	n/a	n/a	n/a	n/a	n/a	n/a	n/a	n/a	n/a	n/a	n/a	n/a	n/a	n/a	n/a	n/a	n/a	n/a	n/a	n/a	n/a	n/a	n/a	n/a	n/a	n/a	n/a	n/a	n/a	n/a	n/a	n/a	n/a	n/a	n/a	n/a	n/a	n/a	n/a	n/a	401.7983488999307	401.7983488999307	2.0	0.6814291998744011	402.4979171003215	402.4979171003215	402.4979171003215	402.4979171003215	402.4979171003215	402.4979171003215	4.0	0.1477594999596476	n/a	n/a	n/a	n/a	n/a	n/a	n/a	n/a	n/a	n/a	n/a	n/a	n/a	n/a	n/a	n/a	n/a	n/a	n/a	n/a	n/a	n/a	n/a	n/a	n/a	n/a	n/a	n/a	n/a	n/a	utils/practice/ScrambledFW_43M_NE_O.BMP	n/a	n/a	n/a	n/a	n/a	n/a	utils/practice/ScrambledBW_43M_NE_O.BMP	n/a	n/a	n/a	n/a	n/a	n/a	n/a	n/a	n/a	n/a	n/a	n/a	n/a	n/a	n/a	n/a	n/a	n/a	n/a	n/a	n/a	n/a	n/a	n/a	n/a	n/a	n/a	n/a	45	1	2023-03-15_18h03.21.239	test_final	2022.2.4	60.08734306734811	n/a
NimStim_Database/Images/24M_NE_C.BMP	utils/practice/ScrambledFW_43M_NE_O.BMP	utils/practice/ScrambledBW_43M_NE_O.BMP	utils/practice/fake_prac13.jpg	utils/practice/real_prac12.jpg	n/a	n/a	n/a	n/a	n/a	0.0	7.0	7.0	15.0	n/a	n/a	n/a	n/a	n/a	n/a	n/a	n/a	n/a	n/a	n/a	n/a	n/a	n/a	n/a	n/a	n/a	n/a	n/a	n/a	n/a	n/a	n/a	n/a	n/a	n/a	n/a	n/a	n/a	n/a	n/a	n/a	n/a	n/a	n/a	n/a	n/a	n/a	n/a	n/a	n/a	n/a	n/a	n/a	n/a	n/a	n/a	n/a	n/a	n/a	n/a	n/a	n/a	n/a	n/a	n/a	n/a	n/a	n/a	n/a	n/a	n/a	n/a	n/a	n/a	n/a	n/a	n/a	n/a	n/a	402.6641224003397	n/a	n/a	n/a	n/a	n/a	n/a	n/a	n/a	n/a	n/a	n/a	n/a	n/a	n/a	n/a	n/a	n/a	n/a	n/a	n/a	n/a	n/a	n/a	n/a	n/a	n/a	n/a	n/a	n/a	utils/practice/ScrambledFW_43M_NE_O.BMP	n/a	n/a	n/a	n/a	n/a	n/a	utils/practice/ScrambledBW_43M_NE_O.BMP	n/a	n/a	n/a	n/a	n/a	n/a	n/a	n/a	n/a	n/a	n/a	n/a	n/a	n/a	n/a	n/a	n/a	n/a	n/a	n/a	n/a	n/a	n/a	n/a	n/a	n/a	n/a	n/a	45	1	2023-03-15_18h03.21.239	test_final	2022.2.4	60.08734306734811	n/a
NimStim_Database/Images/43M_NE_O.BMP	utils/practice/ScrambledFW_11F_NE_C.BMP	utils/practice/ScrambledBW_11F_NE_C.BMP	utils/practice/real_prac11.jpg	utils/practice/fake_prac11.jpg	n/a	n/a	n/a	n/a	n/a	0.0	8.0	8.0	4.0	0.0	0.0	0.0	0.0	n/a	n/a	n/a	n/a	n/a	n/a	n/a	n/a	n/a	n/a	n/a	n/a	n/a	n/a	n/a	n/a	n/a	n/a	n/a	n/a	n/a	n/a	n/a	n/a	n/a	n/a	n/a	n/a	n/a	n/a	n/a	n/a	n/a	n/a	n/a	n/a	n/a	n/a	n/a	n/a	n/a	404.678814700339	407.16145940031856	2.46999999999999	n/a	n/a	n/a	n/a	n/a	n/a	n/a	n/a	n/a	n/a	n/a	n/a	n/a	n/a	n/a	n/a	n/a	n/a	n/a	n/a	n/a	n/a	n/a	n/a	n/a	n/a	n/a	n/a	407.16145940031856	407.2954168999568	407.2954168999568	407.3266686000861	407.3266686000861	407.3863527001813	407.3863527001813	407.3863527001813	407.3863527001813	407.3863527001813	407.3863527001813	407.3863527001813	left	n/a	n/a	n/a	n/a	0.6816087998449802	408.0915614003316	409.09033660031855	n/a	n/a	n/a	n/a	utils/practice/ScrambledFW_11F_NE_C.BMP	n/a	n/a	n/a	n/a	n/a	n/a	utils/practice/ScrambledBW_11F_NE_C.BMP	n/a	n/a	n/a	n/a	n/a	n/a	n/a	n/a	n/a	n/a	n/a	n/a	n/a	n/a	n/a	n/a	n/a	n/a	n/a	n/a	n/a	n/a	n/a	n/a	n/a	n/a	n/a	n/a	45	1	2023-03-15_18h03.21.239	test_final	2022.2.4	60.08734306734811	n/a
NimStim_Database/Images/43M_NE_O.BMP	utils/practice/ScrambledFW_11F_NE_C.BMP	utils/practice/ScrambledBW_11F_NE_C.BMP	utils/practice/real_prac11.jpg	utils/practice/fake_prac11.jpg	n/a	n/a	n/a	n/a	n/a	0.0	8.0	8.0	4.0	n/a	n/a	n/a	n/a	n/a	n/a	n/a	n/a	0.0	0.0	0.0	0.0	n/a	n/a	n/a	n/a	n/a	n/a	n/a	n/a	n/a	n/a	n/a	n/a	n/a	n/a	n/a	n/a	n/a	n/a	n/a	n/a	n/a	n/a	n/a	n/a	n/a	n/a	n/a	n/a	n/a	n/a	n/a	n/a	n/a	n/a	n/a	n/a	n/a	n/a	n/a	n/a	n/a	n/a	n/a	n/a	n/a	n/a	409.09033660031855	409.09033660031855	2.0	0.5012937001883984	409.6234508999624	409.6234508999624	409.6234508999624	409.6234508999624	409.6234508999624	409.6234508999624	1.0	0.2531308000907302	n/a	n/a	n/a	n/a	n/a	n/a	n/a	n/a	n/a	n/a	n/a	n/a	n/a	n/a	n/a	n/a	n/a	n/a	n/a	n/a	n/a	n/a	n/a	n/a	n/a	n/a	n/a	n/a	n/a	n/a	utils/practice/ScrambledFW_11F_NE_C.BMP	n/a	n/a	n/a	n/a	n/a	n/a	utils/practice/ScrambledBW_11F_NE_C.BMP	n/a	n/a	n/a	n/a	n/a	n/a	n/a	n/a	n/a	n/a	n/a	n/a	n/a	n/a	n/a	n/a	n/a	n/a	n/a	n/a	n/a	n/a	n/a	n/a	n/a	n/a	n/a	n/a	45	1	2023-03-15_18h03.21.239	test_final	2022.2.4	60.08734306734811	n/a
NimStim_Database/Images/43M_NE_O.BMP	utils/practice/ScrambledFW_11F_NE_C.BMP	utils/practice/ScrambledBW_11F_NE_C.BMP	utils/practice/real_prac11.jpg	utils/practice/fake_prac11.jpg	n/a	n/a	n/a	n/a	n/a	0.0	8.0	8.0	4.0	n/a	n/a	n/a	n/a	n/a	n/a	n/a	n/a	n/a	n/a	n/a	n/a	n/a	n/a	n/a	n/a	n/a	n/a	n/a	n/a	n/a	n/a	n/a	n/a	n/a	n/a	n/a	n/a	n/a	n/a	n/a	n/a	n/a	n/a	n/a	n/a	n/a	n/a	n/a	n/a	n/a	n/a	n/a	n/a	n/a	n/a	n/a	n/a	n/a	n/a	n/a	n/a	n/a	n/a	n/a	n/a	n/a	n/a	n/a	n/a	n/a	n/a	n/a	n/a	n/a	n/a	n/a	n/a	n/a	n/a	409.9063985003159	n/a	n/a	n/a	n/a	n/a	n/a	n/a	n/a	n/a	n/a	n/a	n/a	n/a	n/a	n/a	n/a	n/a	n/a	n/a	n/a	n/a	n/a	n/a	n/a	n/a	n/a	n/a	n/a	n/a	utils/practice/ScrambledFW_11F_NE_C.BMP	n/a	n/a	n/a	n/a	n/a	n/a	utils/practice/ScrambledBW_11F_NE_C.BMP	n/a	n/a	n/a	n/a	n/a	n/a	n/a	n/a	n/a	n/a	n/a	n/a	n/a	n/a	n/a	n/a	n/a	n/a	n/a	n/a	n/a	n/a	n/a	n/a	n/a	n/a	n/a	n/a	45	1	2023-03-15_18h03.21.239	test_final	2022.2.4	60.08734306734811	n/a
NimStim_Database/Images/12F_NE_C.BMP	utils/practice/ScrambledFW_03F_NE_O.BMP	utils/practice/ScrambledBW_03F_NE_O.BMP	utils/practice/real_prac9.jpg	utils/practice/real_prac13.jpg	n/a	n/a	n/a	n/a	n/a	0.0	9.0	9.0	1.0	0.0	0.0	0.0	0.0	n/a	n/a	n/a	n/a	n/a	n/a	n/a	n/a	n/a	n/a	n/a	n/a	n/a	n/a	n/a	n/a	n/a	n/a	n/a	n/a	n/a	n/a	n/a	n/a	n/a	n/a	n/a	n/a	n/a	n/a	n/a	n/a	n/a	n/a	n/a	n/a	n/a	n/a	n/a	n/a	n/a	411.9206203003414	414.1398263000883	2.2099999999999955	n/a	n/a	n/a	n/a	n/a	n/a	n/a	n/a	n/a	n/a	n/a	n/a	n/a	n/a	n/a	n/a	n/a	n/a	n/a	n/a	n/a	n/a	n/a	n/a	n/a	n/a	n/a	n/a	414.1398263000883	414.25390119990334	414.25390119990334	414.287200700026	414.287200700026	414.3451513000764	414.3451513000764	414.3451513000764	414.3451513000764	414.3451513000764	414.3451513000764	414.3451513000764	right	n/a	n/a	n/a	n/a	0.4984798999503255	414.8675246001221	n/a	n/a	n/a	n/a	n/a	utils/practice/ScrambledFW_03F_NE_O.BMP	n/a	n/a	n/a	n/a	n/a	n/a	utils/practice/ScrambledBW_03F_NE_O.BMP	n/a	n/a	n/a	n/a	n/a	n/a	n/a	n/a	n/a	n/a	n/a	n/a	n/a	n/a	n/a	n/a	n/a	n/a	n/a	n/a	n/a	n/a	n/a	n/a	n/a	n/a	n/a	n/a	45	1	2023-03-15_18h03.21.239	test_final	2022.2.4	60.08734306734811	n/a
NimStim_Database/Images/12F_NE_C.BMP	utils/practice/ScrambledFW_03F_NE_O.BMP	utils/practice/ScrambledBW_03F_NE_O.BMP	utils/practice/real_prac9.jpg	utils/practice/real_prac13.jpg	n/a	n/a	n/a	n/a	n/a	0.0	9.0	9.0	1.0	n/a	n/a	n/a	n/a	n/a	n/a	n/a	n/a	0.0	0.0	0.0	0.0	n/a	n/a	n/a	n/a	n/a	n/a	n/a	n/a	n/a	n/a	n/a	n/a	n/a	n/a	n/a	n/a	n/a	n/a	n/a	n/a	n/a	n/a	n/a	n/a	n/a	n/a	n/a	n/a	n/a	n/a	n/a	n/a	n/a	n/a	n/a	n/a	n/a	n/a	n/a	n/a	n/a	n/a	n/a	n/a	n/a	n/a	415.8829034003429	415.8829034003429	2.0	0.7210844000801444	416.6323326001875	416.6323326001875	416.6323326001875	416.6323326001875	416.6323326001875	416.6323326001875	1.0	0.4857284999452531	n/a	n/a	n/a	n/a	n/a	n/a	n/a	n/a	n/a	n/a	n/a	n/a	n/a	n/a	n/a	n/a	n/a	n/a	n/a	n/a	n/a	n/a	n/a	n/a	n/a	n/a	n/a	n/a	n/a	n/a	utils/practice/ScrambledFW_03F_NE_O.BMP	n/a	n/a	n/a	n/a	n/a	n/a	utils/practice/ScrambledBW_03F_NE_O.BMP	n/a	n/a	n/a	n/a	n/a	n/a	n/a	n/a	n/a	n/a	n/a	n/a	n/a	n/a	n/a	n/a	n/a	n/a	n/a	n/a	n/a	n/a	n/a	n/a	n/a	n/a	n/a	n/a	45	1	2023-03-15_18h03.21.239	test_final	2022.2.4	60.08734306734811	n/a
NimStim_Database/Images/12F_NE_C.BMP	utils/practice/ScrambledFW_03F_NE_O.BMP	utils/practice/ScrambledBW_03F_NE_O.BMP	utils/practice/real_prac9.jpg	utils/practice/real_prac13.jpg	n/a	n/a	n/a	n/a	n/a	0.0	9.0	9.0	1.0	n/a	n/a	n/a	n/a	n/a	n/a	n/a	n/a	n/a	n/a	n/a	n/a	n/a	n/a	n/a	n/a	n/a	n/a	n/a	n/a	n/a	n/a	n/a	n/a	n/a	n/a	n/a	n/a	n/a	n/a	n/a	n/a	n/a	n/a	n/a	n/a	n/a	n/a	n/a	n/a	n/a	n/a	n/a	n/a	n/a	n/a	n/a	n/a	n/a	n/a	n/a	n/a	n/a	n/a	n/a	n/a	n/a	n/a	n/a	n/a	n/a	n/a	n/a	n/a	n/a	n/a	n/a	n/a	n/a	n/a	417.1483013001271	n/a	n/a	n/a	n/a	n/a	n/a	n/a	n/a	n/a	n/a	n/a	n/a	n/a	n/a	n/a	n/a	n/a	n/a	n/a	n/a	n/a	n/a	n/a	n/a	n/a	n/a	n/a	n/a	n/a	utils/practice/ScrambledFW_03F_NE_O.BMP	n/a	n/a	n/a	n/a	n/a	n/a	utils/practice/ScrambledBW_03F_NE_O.BMP	n/a	n/a	n/a	n/a	n/a	n/a	n/a	n/a	n/a	n/a	n/a	n/a	n/a	n/a	n/a	n/a	n/a	n/a	n/a	n/a	n/a	n/a	n/a	n/a	n/a	n/a	n/a	n/a	45	1	2023-03-15_18h03.21.239	test_final	2022.2.4	60.08734306734811	n/a
NimStim_Database/Images/25M_NE_C.BMP	utils/practice/ScrambledFW_01F_NE_O.BMP	utils/practice/ScrambledBW_01F_NE_O.BMP	utils/practice/real_prac1.jpg	utils/practice/real_prac10.jpg	n/a	n/a	n/a	n/a	n/a	0.0	10.0	10.0	0.0	n/a	n/a	n/a	n/a	0.0	0.0	0.0	0.0	n/a	n/a	n/a	n/a	n/a	n/a	n/a	n/a	n/a	n/a	n/a	n/a	n/a	n/a	n/a	n/a	n/a	n/a	n/a	n/a	n/a	n/a	n/a	n/a	n/a	n/a	n/a	n/a	n/a	n/a	n/a	n/a	n/a	n/a	n/a	n/a	n/a	419.1626574001275	421.24680310022086	2.0799999999999983	n/a	n/a	n/a	n/a	n/a	n/a	n/a	n/a	n/a	n/a	n/a	n/a	n/a	n/a	n/a	n/a	n/a	n/a	n/a	n/a	n/a	n/a	n/a	n/a	n/a	n/a	n/a	n/a	421.24680310022086	421.3768883002922	421.3768883002922	421.4150511999615	421.4150511999615	421.4776242002845	421.4776242002845	421.4776242002845	421.4776242002845	421.4776242002845	421.4776242002845	421.4776242002845	None	422.2095488002524	422.2095488002524	space	1.0132021000608802	n/a	n/a	n/a	n/a	n/a	n/a	n/a	utils/practice/ScrambledFW_01F_NE_O.BMP	n/a	n/a	n/a	n/a	n/a	n/a	utils/practice/ScrambledBW_01F_NE_O.BMP	n/a	n/a	n/a	n/a	n/a	n/a	n/a	n/a	n/a	n/a	n/a	n/a	n/a	n/a	n/a	n/a	n/a	n/a	n/a	n/a	n/a	n/a	n/a	n/a	n/a	n/a	n/a	n/a	45	1	2023-03-15_18h03.21.239	test_final	2022.2.4	60.08734306734811	n/a
NimStim_Database/Images/25M_NE_C.BMP	utils/practice/ScrambledFW_01F_NE_O.BMP	utils/practice/ScrambledBW_01F_NE_O.BMP	utils/practice/real_prac1.jpg	utils/practice/real_prac10.jpg	n/a	n/a	n/a	n/a	n/a	0.0	10.0	10.0	0.0	n/a	n/a	n/a	n/a	n/a	n/a	n/a	n/a	n/a	n/a	n/a	n/a	n/a	n/a	n/a	n/a	n/a	n/a	n/a	n/a	n/a	n/a	n/a	n/a	n/a	n/a	n/a	n/a	n/a	n/a	n/a	n/a	n/a	n/a	n/a	n/a	n/a	n/a	n/a	n/a	n/a	n/a	n/a	n/a	n/a	n/a	n/a	n/a	n/a	n/a	n/a	n/a	n/a	n/a	n/a	n/a	n/a	n/a	n/a	n/a	n/a	n/a	n/a	n/a	n/a	n/a	n/a	n/a	n/a	n/a	423.2414171001874	n/a	n/a	n/a	n/a	n/a	n/a	n/a	n/a	n/a	n/a	n/a	n/a	n/a	n/a	n/a	n/a	n/a	n/a	n/a	n/a	n/a	n/a	n/a	n/a	n/a	n/a	n/a	n/a	n/a	utils/practice/ScrambledFW_01F_NE_O.BMP	n/a	n/a	n/a	n/a	n/a	n/a	utils/practice/ScrambledBW_01F_NE_O.BMP	n/a	n/a	n/a	n/a	n/a	n/a	n/a	n/a	n/a	n/a	n/a	n/a	n/a	n/a	n/a	n/a	n/a	n/a	n/a	n/a	n/a	n/a	n/a	n/a	n/a	n/a	n/a	n/a	45	1	2023-03-15_18h03.21.239	test_final	2022.2.4	60.08734306734811	n/a
NimStim_Database/Images/28M_NE_C.BMP	utils/practice/ScrambledFW_33M_NE_C.BMP	utils/practice/ScrambledBW_33M_NE_C.BMP	utils/practice/real_prac2.jpg	utils/practice/fake_prac16.jpg	n/a	n/a	n/a	n/a	n/a	0.0	11.0	11.0	13.0	0.0	0.0	0.0	0.0	n/a	n/a	n/a	n/a	n/a	n/a	n/a	n/a	n/a	n/a	n/a	n/a	n/a	n/a	n/a	n/a	n/a	n/a	n/a	n/a	n/a	n/a	n/a	n/a	n/a	n/a	n/a	n/a	n/a	n/a	n/a	n/a	n/a	n/a	n/a	n/a	n/a	n/a	n/a	n/a	n/a	425.2561337999068	427.6402588002384	2.369999999999992	n/a	n/a	n/a	n/a	n/a	n/a	n/a	n/a	n/a	n/a	n/a	n/a	n/a	n/a	n/a	n/a	n/a	n/a	n/a	n/a	n/a	n/a	n/a	n/a	n/a	n/a	n/a	n/a	427.6402588002384	427.7895428002812	427.7895428002812	427.8344207000919	427.8344207000919	427.8987607001327	427.8987607001327	427.8987607001327	427.8987607001327	427.8987607001327	427.8987607001327	427.8987607001327	left	n/a	n/a	n/a	n/a	0.5542076001875103	428.4691858002916	n/a	n/a	n/a	n/a	n/a	utils/practice/ScrambledFW_33M_NE_C.BMP	n/a	n/a	n/a	n/a	n/a	n/a	utils/practice/ScrambledBW_33M_NE_C.BMP	n/a	n/a	n/a	n/a	n/a	n/a	n/a	n/a	n/a	n/a	n/a	n/a	n/a	n/a	n/a	n/a	n/a	n/a	n/a	n/a	n/a	n/a	n/a	n/a	n/a	n/a	n/a	n/a	45	1	2023-03-15_18h03.21.239	test_final	2022.2.4	60.08734306734811	n/a
NimStim_Database/Images/28M_NE_C.BMP	utils/practice/ScrambledFW_33M_NE_C.BMP	utils/practice/ScrambledBW_33M_NE_C.BMP	utils/practice/real_prac2.jpg	utils/practice/fake_prac16.jpg	n/a	n/a	n/a	n/a	n/a	0.0	11.0	11.0	13.0	n/a	n/a	n/a	n/a	n/a	n/a	n/a	n/a	0.0	0.0	0.0	0.0	n/a	n/a	n/a	n/a	n/a	n/a	n/a	n/a	n/a	n/a	n/a	n/a	n/a	n/a	n/a	n/a	n/a	n/a	n/a	n/a	n/a	n/a	n/a	n/a	n/a	n/a	n/a	n/a	n/a	n/a	n/a	n/a	n/a	n/a	n/a	n/a	n/a	n/a	n/a	n/a	n/a	n/a	n/a	n/a	n/a	n/a	429.4848929001018	429.4848929001018	2.0	0.4237008998170495	429.9341001003049	429.9341001003049	429.9341001003049	429.9341001003049	429.9341001003049	429.9341001003049	4.0	0.1085330001078546	n/a	n/a	n/a	n/a	n/a	n/a	n/a	n/a	n/a	n/a	n/a	n/a	n/a	n/a	n/a	n/a	n/a	n/a	n/a	n/a	n/a	n/a	n/a	n/a	n/a	n/a	n/a	n/a	n/a	n/a	utils/practice/ScrambledFW_33M_NE_C.BMP	n/a	n/a	n/a	n/a	n/a	n/a	utils/practice/ScrambledBW_33M_NE_C.BMP	n/a	n/a	n/a	n/a	n/a	n/a	n/a	n/a	n/a	n/a	n/a	n/a	n/a	n/a	n/a	n/a	n/a	n/a	n/a	n/a	n/a	n/a	n/a	n/a	n/a	n/a	n/a	n/a	45	1	2023-03-15_18h03.21.239	test_final	2022.2.4	60.08734306734811	n/a
NimStim_Database/Images/28M_NE_C.BMP	utils/practice/ScrambledFW_33M_NE_C.BMP	utils/practice/ScrambledBW_33M_NE_C.BMP	utils/practice/real_prac2.jpg	utils/practice/fake_prac16.jpg	n/a	n/a	n/a	n/a	n/a	0.0	11.0	11.0	13.0	n/a	n/a	n/a	n/a	n/a	n/a	n/a	n/a	n/a	n/a	n/a	n/a	n/a	n/a	n/a	n/a	n/a	n/a	n/a	n/a	n/a	n/a	n/a	n/a	n/a	n/a	n/a	n/a	n/a	n/a	n/a	n/a	n/a	n/a	n/a	n/a	n/a	n/a	n/a	n/a	n/a	n/a	n/a	n/a	n/a	n/a	n/a	n/a	n/a	n/a	n/a	n/a	n/a	n/a	n/a	n/a	n/a	n/a	n/a	n/a	n/a	n/a	n/a	n/a	n/a	n/a	n/a	n/a	n/a	n/a	430.06750439992175	n/a	n/a	n/a	n/a	n/a	n/a	n/a	n/a	n/a	n/a	n/a	n/a	n/a	n/a	n/a	n/a	n/a	n/a	n/a	n/a	n/a	n/a	n/a	n/a	n/a	n/a	n/a	n/a	n/a	utils/practice/ScrambledFW_33M_NE_C.BMP	n/a	n/a	n/a	n/a	n/a	n/a	utils/practice/ScrambledBW_33M_NE_C.BMP	n/a	n/a	n/a	n/a	n/a	n/a	n/a	n/a	n/a	n/a	n/a	n/a	n/a	n/a	n/a	n/a	n/a	n/a	n/a	n/a	n/a	n/a	n/a	n/a	n/a	n/a	n/a	n/a	45	1	2023-03-15_18h03.21.239	test_final	2022.2.4	60.08734306734811	n/a
NimStim_Database/Images/11F_NE_C.BMP	utils/practice/ScrambledFW_37M_NE_C.BMP	utils/practice/ScrambledBW_37M_NE_C.BMP	utils/practice/real_prac16.jpg	utils/practice/fake_prac1.jpg	n/a	n/a	n/a	n/a	n/a	0.0	12.0	12.0	14.0	n/a	n/a	n/a	n/a	0.0	0.0	0.0	0.0	n/a	n/a	n/a	n/a	n/a	n/a	n/a	n/a	n/a	n/a	n/a	n/a	n/a	n/a	n/a	n/a	n/a	n/a	n/a	n/a	n/a	n/a	n/a	n/a	n/a	n/a	n/a	n/a	n/a	n/a	n/a	n/a	n/a	n/a	n/a	n/a	n/a	432.0818600002676	434.4647177001461	2.379999999999992	n/a	n/a	n/a	n/a	n/a	n/a	n/a	n/a	n/a	n/a	n/a	n/a	n/a	n/a	n/a	n/a	n/a	n/a	n/a	n/a	n/a	n/a	n/a	n/a	n/a	n/a	n/a	n/a	434.4647177001461	434.5792975001968	434.5792975001968	434.6162614002824	434.6162614002824	434.67573200026527	434.67573200026527	434.67573200026527	434.67573200026527	434.67573200026527	434.67573200026527	434.67573200026527	None	435.4117474001832	435.4117474001832	space	1.0592674002982676	n/a	n/a	n/a	n/a	n/a	n/a	n/a	utils/practice/ScrambledFW_37M_NE_C.BMP	n/a	n/a	n/a	n/a	n/a	n/a	utils/practice/ScrambledBW_37M_NE_C.BMP	n/a	n/a	n/a	n/a	n/a	n/a	n/a	n/a	n/a	n/a	n/a	n/a	n/a	n/a	n/a	n/a	n/a	n/a	n/a	n/a	n/a	n/a	n/a	n/a	n/a	n/a	n/a	n/a	45	1	2023-03-15_18h03.21.239	test_final	2022.2.4	60.08734306734811	n/a
NimStim_Database/Images/11F_NE_C.BMP	utils/practice/ScrambledFW_37M_NE_C.BMP	utils/practice/ScrambledBW_37M_NE_C.BMP	utils/practice/real_prac16.jpg	utils/practice/fake_prac1.jpg	n/a	n/a	n/a	n/a	n/a	0.0	12.0	12.0	14.0	n/a	n/a	n/a	n/a	n/a	n/a	n/a	n/a	n/a	n/a	n/a	n/a	n/a	n/a	n/a	n/a	n/a	n/a	n/a	n/a	n/a	n/a	n/a	n/a	n/a	n/a	n/a	n/a	n/a	n/a	n/a	n/a	n/a	n/a	n/a	n/a	n/a	n/a	n/a	n/a	n/a	n/a	n/a	n/a	n/a	n/a	n/a	n/a	n/a	n/a	n/a	n/a	n/a	n/a	n/a	n/a	n/a	n/a	n/a	n/a	n/a	n/a	n/a	n/a	n/a	n/a	n/a	n/a	n/a	n/a	436.4935942003504	n/a	n/a	n/a	n/a	n/a	n/a	n/a	n/a	n/a	n/a	n/a	n/a	n/a	n/a	n/a	n/a	n/a	n/a	n/a	n/a	n/a	n/a	n/a	n/a	n/a	n/a	n/a	n/a	n/a	utils/practice/ScrambledFW_37M_NE_C.BMP	n/a	n/a	n/a	n/a	n/a	n/a	utils/practice/ScrambledBW_37M_NE_C.BMP	n/a	n/a	n/a	n/a	n/a	n/a	n/a	n/a	n/a	n/a	n/a	n/a	n/a	n/a	n/a	n/a	n/a	n/a	n/a	n/a	n/a	n/a	n/a	n/a	n/a	n/a	n/a	n/a	45	1	2023-03-15_18h03.21.239	test_final	2022.2.4	60.08734306734811	n/a
NimStim_Database/Images/28M_NE_O.BMP	utils/practice/ScrambledFW_12F_NE_C.BMP	utils/practice/ScrambledBW_12F_NE_C.BMP	utils/practice/fake_prac3.jpg	utils/practice/fake_prac10.jpg	n/a	n/a	n/a	n/a	n/a	0.0	13.0	13.0	5.0	0.0	0.0	0.0	0.0	n/a	n/a	n/a	n/a	n/a	n/a	n/a	n/a	n/a	n/a	n/a	n/a	n/a	n/a	n/a	n/a	n/a	n/a	n/a	n/a	n/a	n/a	n/a	n/a	n/a	n/a	n/a	n/a	n/a	n/a	n/a	n/a	n/a	n/a	n/a	n/a	n/a	n/a	n/a	n/a	n/a	438.5083185001277	440.64117750013247	2.119999999999997	n/a	n/a	n/a	n/a	n/a	n/a	n/a	n/a	n/a	n/a	n/a	n/a	n/a	n/a	n/a	n/a	n/a	n/a	n/a	n/a	n/a	n/a	n/a	n/a	n/a	n/a	n/a	n/a	440.64117750013247	440.7388324001804	440.7388324001804	440.7750862003304	440.7750862003304	440.83498500008136	440.83498500008136	440.83498500008136	440.83498500008136	440.83498500008136	440.83498500008136	440.83498500008136	left	n/a	n/a	n/a	n/a	0.6034685997292399	441.45500779990107	n/a	n/a	n/a	n/a	n/a	utils/practice/ScrambledFW_12F_NE_C.BMP	n/a	n/a	n/a	n/a	n/a	n/a	utils/practice/ScrambledBW_12F_NE_C.BMP	n/a	n/a	n/a	n/a	n/a	n/a	n/a	n/a	n/a	n/a	n/a	n/a	n/a	n/a	n/a	n/a	n/a	n/a	n/a	n/a	n/a	n/a	n/a	n/a	n/a	n/a	n/a	n/a	45	1	2023-03-15_18h03.21.239	test_final	2022.2.4	60.08734306734811	n/a
NimStim_Database/Images/28M_NE_O.BMP	utils/practice/ScrambledFW_12F_NE_C.BMP	utils/practice/ScrambledBW_12F_NE_C.BMP	utils/practice/fake_prac3.jpg	utils/practice/fake_prac10.jpg	n/a	n/a	n/a	n/a	n/a	0.0	13.0	13.0	5.0	n/a	n/a	n/a	n/a	n/a	n/a	n/a	n/a	0.0	0.0	0.0	0.0	n/a	n/a	n/a	n/a	n/a	n/a	n/a	n/a	n/a	n/a	n/a	n/a	n/a	n/a	n/a	n/a	n/a	n/a	n/a	n/a	n/a	n/a	n/a	n/a	n/a	n/a	n/a	n/a	n/a	n/a	n/a	n/a	n/a	n/a	n/a	n/a	n/a	n/a	n/a	n/a	n/a	n/a	n/a	n/a	n/a	n/a	442.47040989995	442.47040989995	2.0	0.9748983001336456	443.4693762003444	443.4693762003444	443.4693762003444	443.4693762003444	443.4693762003444	443.4693762003444	4.0	0.1815088000148534	n/a	n/a	n/a	n/a	n/a	n/a	n/a	n/a	n/a	n/a	n/a	n/a	n/a	n/a	n/a	n/a	n/a	n/a	n/a	n/a	n/a	n/a	n/a	n/a	n/a	n/a	n/a	n/a	n/a	n/a	utils/practice/ScrambledFW_12F_NE_C.BMP	n/a	n/a	n/a	n/a	n/a	n/a	utils/practice/ScrambledBW_12F_NE_C.BMP	n/a	n/a	n/a	n/a	n/a	n/a	n/a	n/a	n/a	n/a	n/a	n/a	n/a	n/a	n/a	n/a	n/a	n/a	n/a	n/a	n/a	n/a	n/a	n/a	n/a	n/a	n/a	n/a	45	1	2023-03-15_18h03.21.239	test_final	2022.2.4	60.08734306734811	n/a
NimStim_Database/Images/28M_NE_O.BMP	utils/practice/ScrambledFW_12F_NE_C.BMP	utils/practice/ScrambledBW_12F_NE_C.BMP	utils/practice/fake_prac3.jpg	utils/practice/fake_prac10.jpg	n/a	n/a	n/a	n/a	n/a	0.0	13.0	13.0	5.0	n/a	n/a	n/a	n/a	n/a	n/a	n/a	n/a	n/a	n/a	n/a	n/a	n/a	n/a	n/a	n/a	n/a	n/a	n/a	n/a	n/a	n/a	n/a	n/a	n/a	n/a	n/a	n/a	n/a	n/a	n/a	n/a	n/a	n/a	n/a	n/a	n/a	n/a	n/a	n/a	n/a	n/a	n/a	n/a	n/a	n/a	n/a	n/a	n/a	n/a	n/a	n/a	n/a	n/a	n/a	n/a	n/a	n/a	n/a	n/a	n/a	n/a	n/a	n/a	n/a	n/a	n/a	n/a	n/a	n/a	443.6691426001489	n/a	n/a	n/a	n/a	n/a	n/a	n/a	n/a	n/a	n/a	n/a	n/a	n/a	n/a	n/a	n/a	n/a	n/a	n/a	n/a	n/a	n/a	n/a	n/a	n/a	n/a	n/a	n/a	n/a	utils/practice/ScrambledFW_12F_NE_C.BMP	n/a	n/a	n/a	n/a	n/a	n/a	utils/practice/ScrambledBW_12F_NE_C.BMP	n/a	n/a	n/a	n/a	n/a	n/a	n/a	n/a	n/a	n/a	n/a	n/a	n/a	n/a	n/a	n/a	n/a	n/a	n/a	n/a	n/a	n/a	n/a	n/a	n/a	n/a	n/a	n/a	45	1	2023-03-15_18h03.21.239	test_final	2022.2.4	60.08734306734811	n/a
NimStim_Database/Images/37M_NE_C.BMP	utils/practice/ScrambledFW_24M_NE_C.BMP	utils/practice/ScrambledBW_24M_NE_C.BMP	utils/practice/real_prac7.jpg	utils/practice/real_prac14.jpg	n/a	n/a	n/a	n/a	n/a	0.0	14.0	14.0	9.0	0.0	0.0	0.0	0.0	n/a	n/a	n/a	n/a	n/a	n/a	n/a	n/a	n/a	n/a	n/a	n/a	n/a	n/a	n/a	n/a	n/a	n/a	n/a	n/a	n/a	n/a	n/a	n/a	n/a	n/a	n/a	n/a	n/a	n/a	n/a	n/a	n/a	n/a	n/a	n/a	n/a	n/a	n/a	n/a	n/a	445.6836743000895	448.0519969002344	2.3499999999999925	n/a	n/a	n/a	n/a	n/a	n/a	n/a	n/a	n/a	n/a	n/a	n/a	n/a	n/a	n/a	n/a	n/a	n/a	n/a	n/a	n/a	n/a	n/a	n/a	n/a	n/a	n/a	n/a	448.0519969002344	448.18579509994015	448.18579509994015	448.215890600346	448.215890600346	448.2813111003488	448.2813111003488	448.2813111003488	448.2813111003488	448.2813111003488	448.2813111003488	448.2813111003488	right	n/a	n/a	n/a	n/a	0.4135175999253988	448.71358980005607	n/a	n/a	n/a	n/a	n/a	utils/practice/ScrambledFW_24M_NE_C.BMP	n/a	n/a	n/a	n/a	n/a	n/a	utils/practice/ScrambledBW_24M_NE_C.BMP	n/a	n/a	n/a	n/a	n/a	n/a	n/a	n/a	n/a	n/a	n/a	n/a	n/a	n/a	n/a	n/a	n/a	n/a	n/a	n/a	n/a	n/a	n/a	n/a	n/a	n/a	n/a	n/a	45	1	2023-03-15_18h03.21.239	test_final	2022.2.4	60.08734306734811	n/a
NimStim_Database/Images/37M_NE_C.BMP	utils/practice/ScrambledFW_24M_NE_C.BMP	utils/practice/ScrambledBW_24M_NE_C.BMP	utils/practice/real_prac7.jpg	utils/practice/real_prac14.jpg	n/a	n/a	n/a	n/a	n/a	0.0	14.0	14.0	9.0	n/a	n/a	n/a	n/a	n/a	n/a	n/a	n/a	0.0	0.0	0.0	0.0	n/a	n/a	n/a	n/a	n/a	n/a	n/a	n/a	n/a	n/a	n/a	n/a	n/a	n/a	n/a	n/a	n/a	n/a	n/a	n/a	n/a	n/a	n/a	n/a	n/a	n/a	n/a	n/a	n/a	n/a	n/a	n/a	n/a	n/a	n/a	n/a	n/a	n/a	n/a	n/a	n/a	n/a	n/a	n/a	n/a	n/a	449.7290521003306	449.7290521003306	2.0	0.3340567997656762	450.0953816003166	450.0953816003166	450.0953816003166	450.0953816003166	450.0953816003166	450.0953816003166	4.0	0.1563611002638936	n/a	n/a	n/a	n/a	n/a	n/a	n/a	n/a	n/a	n/a	n/a	n/a	n/a	n/a	n/a	n/a	n/a	n/a	n/a	n/a	n/a	n/a	n/a	n/a	n/a	n/a	n/a	n/a	n/a	n/a	utils/practice/ScrambledFW_24M_NE_C.BMP	n/a	n/a	n/a	n/a	n/a	n/a	utils/practice/ScrambledBW_24M_NE_C.BMP	n/a	n/a	n/a	n/a	n/a	n/a	n/a	n/a	n/a	n/a	n/a	n/a	n/a	n/a	n/a	n/a	n/a	n/a	n/a	n/a	n/a	n/a	n/a	n/a	n/a	n/a	n/a	n/a	45	1	2023-03-15_18h03.21.239	test_final	2022.2.4	60.08734306734811	n/a
NimStim_Database/Images/37M_NE_C.BMP	utils/practice/ScrambledFW_24M_NE_C.BMP	utils/practice/ScrambledBW_24M_NE_C.BMP	utils/practice/real_prac7.jpg	utils/practice/real_prac14.jpg	n/a	n/a	n/a	n/a	n/a	0.0	14.0	14.0	9.0	n/a	n/a	n/a	n/a	n/a	n/a	n/a	n/a	n/a	n/a	n/a	n/a	n/a	n/a	n/a	n/a	n/a	n/a	n/a	n/a	n/a	n/a	n/a	n/a	n/a	n/a	n/a	n/a	n/a	n/a	n/a	n/a	n/a	n/a	n/a	n/a	n/a	n/a	n/a	n/a	n/a	n/a	n/a	n/a	n/a	n/a	n/a	n/a	n/a	n/a	n/a	n/a	n/a	n/a	n/a	n/a	n/a	n/a	n/a	n/a	n/a	n/a	n/a	n/a	n/a	n/a	n/a	n/a	n/a	n/a	450.2783989002928	n/a	n/a	n/a	n/a	n/a	n/a	n/a	n/a	n/a	n/a	n/a	n/a	n/a	n/a	n/a	n/a	n/a	n/a	n/a	n/a	n/a	n/a	n/a	n/a	n/a	n/a	n/a	n/a	n/a	utils/practice/ScrambledFW_24M_NE_C.BMP	n/a	n/a	n/a	n/a	n/a	n/a	utils/practice/ScrambledBW_24M_NE_C.BMP	n/a	n/a	n/a	n/a	n/a	n/a	n/a	n/a	n/a	n/a	n/a	n/a	n/a	n/a	n/a	n/a	n/a	n/a	n/a	n/a	n/a	n/a	n/a	n/a	n/a	n/a	n/a	n/a	45	1	2023-03-15_18h03.21.239	test_final	2022.2.4	60.08734306734811	n/a
NimStim_Database/Images/33M_NE_C.BMP	utils/practice/ScrambledFW_25M_NE_C.BMP	utils/practice/ScrambledBW_25M_NE_C.BMP	utils/practice/fake_prac4.jpg	utils/practice/fake_prac5.jpg	n/a	n/a	n/a	n/a	n/a	0.0	15.0	15.0	10.0	0.0	0.0	0.0	0.0	n/a	n/a	n/a	n/a	n/a	n/a	n/a	n/a	n/a	n/a	n/a	n/a	n/a	n/a	n/a	n/a	n/a	n/a	n/a	n/a	n/a	n/a	n/a	n/a	n/a	n/a	n/a	n/a	n/a	n/a	n/a	n/a	n/a	n/a	n/a	n/a	n/a	n/a	n/a	n/a	n/a	452.2931162999012	454.6925870999694	2.389999999999992	n/a	n/a	n/a	n/a	n/a	n/a	n/a	n/a	n/a	n/a	n/a	n/a	n/a	n/a	n/a	n/a	n/a	n/a	n/a	n/a	n/a	n/a	n/a	n/a	n/a	n/a	n/a	n/a	454.6925870999694	454.8069905000739	454.8069905000739	454.842144000344	454.842144000344	454.901674900204	454.901674900204	454.901674900204	454.901674900204	454.901674900204	454.901674900204	454.901674900204	right	n/a	n/a	n/a	n/a	0.5635712998919189	455.4893308002502	n/a	n/a	n/a	n/a	n/a	utils/practice/ScrambledFW_25M_NE_C.BMP	n/a	n/a	n/a	n/a	n/a	n/a	utils/practice/ScrambledBW_25M_NE_C.BMP	n/a	n/a	n/a	n/a	n/a	n/a	n/a	n/a	n/a	n/a	n/a	n/a	n/a	n/a	n/a	n/a	n/a	n/a	n/a	n/a	n/a	n/a	n/a	n/a	n/a	n/a	n/a	n/a	45	1	2023-03-15_18h03.21.239	test_final	2022.2.4	60.08734306734811	n/a
NimStim_Database/Images/33M_NE_C.BMP	utils/practice/ScrambledFW_25M_NE_C.BMP	utils/practice/ScrambledBW_25M_NE_C.BMP	utils/practice/fake_prac4.jpg	utils/practice/fake_prac5.jpg	n/a	n/a	n/a	n/a	n/a	0.0	15.0	15.0	10.0	n/a	n/a	n/a	n/a	n/a	n/a	n/a	n/a	0.0	0.0	0.0	0.0	n/a	n/a	n/a	n/a	n/a	n/a	n/a	n/a	n/a	n/a	n/a	n/a	n/a	n/a	n/a	n/a	n/a	n/a	n/a	n/a	n/a	n/a	n/a	n/a	n/a	n/a	n/a	n/a	n/a	n/a	n/a	n/a	n/a	n/a	n/a	n/a	n/a	n/a	n/a	n/a	n/a	n/a	n/a	n/a	n/a	n/a	456.50506599992514	456.50506599992514	2.0	0.8962137997150421	457.4207508000545	457.4207508000545	457.4207508000545	457.4207508000545	457.4207508000545	457.4207508000545	1.0	0.2424845998175442	n/a	n/a	n/a	n/a	n/a	n/a	n/a	n/a	n/a	n/a	n/a	n/a	n/a	n/a	n/a	n/a	n/a	n/a	n/a	n/a	n/a	n/a	n/a	n/a	n/a	n/a	n/a	n/a	n/a	n/a	utils/practice/ScrambledFW_25M_NE_C.BMP	n/a	n/a	n/a	n/a	n/a	n/a	utils/practice/ScrambledBW_25M_NE_C.BMP	n/a	n/a	n/a	n/a	n/a	n/a	n/a	n/a	n/a	n/a	n/a	n/a	n/a	n/a	n/a	n/a	n/a	n/a	n/a	n/a	n/a	n/a	n/a	n/a	n/a	n/a	n/a	n/a	45	1	2023-03-15_18h03.21.239	test_final	2022.2.4	60.08734306734811	n/a
NimStim_Database/Images/33M_NE_C.BMP	utils/practice/ScrambledFW_25M_NE_C.BMP	utils/practice/ScrambledBW_25M_NE_C.BMP	utils/practice/fake_prac4.jpg	utils/practice/fake_prac5.jpg	n/a	n/a	n/a	n/a	n/a	0.0	15.0	15.0	10.0	n/a	n/a	n/a	n/a	n/a	n/a	n/a	n/a	n/a	n/a	n/a	n/a	n/a	n/a	n/a	n/a	n/a	n/a	n/a	n/a	n/a	n/a	n/a	n/a	n/a	n/a	n/a	n/a	n/a	n/a	n/a	n/a	n/a	n/a	n/a	n/a	n/a	n/a	n/a	n/a	n/a	n/a	n/a	n/a	n/a	n/a	n/a	n/a	n/a	n/a	n/a	n/a	n/a	n/a	n/a	n/a	n/a	n/a	n/a	n/a	n/a	n/a	n/a	n/a	n/a	n/a	n/a	n/a	n/a	n/a	457.6870872001164	n/a	n/a	n/a	n/a	n/a	n/a	n/a	n/a	n/a	n/a	n/a	n/a	n/a	n/a	n/a	n/a	n/a	n/a	n/a	n/a	n/a	n/a	n/a	n/a	n/a	n/a	n/a	n/a	n/a	utils/practice/ScrambledFW_25M_NE_C.BMP	n/a	n/a	n/a	n/a	n/a	n/a	utils/practice/ScrambledBW_25M_NE_C.BMP	n/a	n/a	n/a	n/a	n/a	n/a	n/a	n/a	n/a	n/a	n/a	n/a	n/a	n/a	n/a	n/a	n/a	n/a	n/a	n/a	n/a	n/a	n/a	n/a	n/a	n/a	n/a	n/a	45	1	2023-03-15_18h03.21.239	test_final	2022.2.4	60.08734306734811	n/a
n/a	n/a	n/a	n/a	n/a	n/a	n/a	n/a	n/a	n/a	n/a	n/a	n/a	n/a	n/a	n/a	n/a	n/a	n/a	n/a	n/a	n/a	n/a	n/a	n/a	n/a	n/a	n/a	n/a	n/a	n/a	n/a	n/a	n/a	n/a	n/a	n/a	n/a	n/a	n/a	n/a	n/a	n/a	n/a	n/a	n/a	n/a	n/a	n/a	n/a	n/a	n/a	n/a	n/a	n/a	n/a	n/a	n/a	n/a	n/a	n/a	n/a	n/a	n/a	n/a	n/a	n/a	n/a	n/a	n/a	n/a	n/a	n/a	n/a	n/a	n/a	n/a	n/a	n/a	n/a	n/a	n/a	n/a	n/a	n/a	n/a	n/a	n/a	n/a	n/a	n/a	n/a	n/a	n/a	n/a	n/a	n/a	n/a	n/a	n/a	n/a	n/a	n/a	n/a	n/a	n/a	n/a	n/a	n/a	n/a	459.7016272000037	space	81.54601139994338	n/a	n/a	n/a	n/a	n/a	n/a	n/a	n/a	n/a	n/a	n/a	n/a	n/a	n/a	n/a	n/a	n/a	n/a	n/a	n/a	n/a	n/a	n/a	n/a	n/a	n/a	n/a	n/a	n/a	n/a	n/a	n/a	n/a	n/a	n/a	n/a	n/a	45	1	2023-03-15_18h03.21.239	test_final	2022.2.4	60.08734306734811	n/a
n/a	utils/nb_masks/EmoScrambledFW_14F_AN_C.BMP	utils/nb_masks/EmoScrambledBW_14F_AN_C.BMP	n/a	n/a	3.0	n/a	n/a	n/a	n/a	n/a	n/a	n/a	n/a	n/a	n/a	n/a	n/a	n/a	n/a	n/a	n/a	n/a	n/a	n/a	n/a	0.0	0.0	0.0	2.0	0.0	0.0	0.0	0.0	n/a	n/a	n/a	n/a	0.0	0.0	0.0	0.0	n/a	n/a	n/a	n/a	n/a	n/a	n/a	n/a	n/a	n/a	n/a	n/a	n/a	n/a	n/a	n/a	n/a	541.2785380999558	543.293031600304	2.01	n/a	n/a	n/a	n/a	n/a	n/a	n/a	n/a	n/a	n/a	n/a	n/a	n/a	n/a	n/a	n/a	n/a	n/a	n/a	n/a	n/a	n/a	n/a	n/a	n/a	n/a	n/a	n/a	n/a	n/a	n/a	n/a	n/a	n/a	n/a	n/a	n/a	n/a	n/a	n/a	n/a	n/a	n/a	n/a	n/a	n/a	n/a	n/a	n/a	n/a	n/a	3.600027412176132e-06	utils/nb_masks/EmoScrambledFW_14F_AN_C.BMP	0.0995340999215841	6.0	4.099681973457336e-06	0.0238852999173104	utils/no_prime.png	3.09990718960762e-06	utils/nb_masks/EmoScrambledBW_14F_AN_C.BMP	0.0328098996542394	4.00003045797348e-06	MR2_database/af12.tif	0.0003407998010516	544.2770720003173	544.2770720003173	space	0.8165698000229895	n/a	n/a	n/a	n/a	n/a	n/a	n/a	n/a	n/a	n/a	n/a	n/a	n/a	n/a	n/a	n/a	n/a	n/a	n/a	n/a	45	1	2023-03-15_18h03.21.239	test_final	2022.2.4	60.08734306734811	n/a
n/a	n/a	n/a	n/a	n/a	3.0	n/a	n/a	n/a	n/a	n/a	n/a	n/a	n/a	n/a	n/a	n/a	n/a	n/a	n/a	n/a	n/a	n/a	n/a	n/a	n/a	0.0	0.0	0.0	2.0	0.0	0.0	0.0	0.0	n/a	n/a	n/a	n/a	n/a	n/a	n/a	n/a	n/a	n/a	n/a	n/a	n/a	n/a	n/a	n/a	n/a	n/a	n/a	n/a	n/a	n/a	n/a	n/a	n/a	n/a	n/a	n/a	n/a	n/a	n/a	n/a	n/a	n/a	n/a	n/a	n/a	n/a	n/a	n/a	n/a	n/a	n/a	n/a	n/a	n/a	n/a	n/a	n/a	n/a	545.1241419003345	n/a	n/a	n/a	n/a	n/a	n/a	n/a	n/a	n/a	n/a	n/a	n/a	n/a	n/a	n/a	n/a	n/a	n/a	n/a	n/a	n/a	n/a	n/a	n/a	n/a	n/a	n/a	n/a	n/a	n/a	n/a	n/a	n/a	n/a	n/a	n/a	n/a	n/a	n/a	n/a	n/a	n/a	n/a	n/a	n/a	n/a	n/a	n/a	n/a	n/a	n/a	n/a	n/a	n/a	n/a	n/a	n/a	n/a	n/a	n/a	n/a	n/a	n/a	n/a	n/a	45	1	2023-03-15_18h03.21.239	test_final	2022.2.4	60.08734306734811	n/a
n/a	utils/nb_masks/NeuScrambledFW_09F_NE_O.BMP	utils/nb_masks/NeuScrambledBW_09F_NE_O.BMP	n/a	n/a	3.0	n/a	n/a	n/a	n/a	n/a	n/a	n/a	n/a	n/a	n/a	n/a	n/a	n/a	n/a	n/a	n/a	n/a	n/a	n/a	n/a	0.0	0.0	0.0	2.0	1.0	0.0	1.0	0.0	0.0	0.0	0.0	0.0	n/a	n/a	n/a	n/a	n/a	n/a	n/a	n/a	n/a	n/a	n/a	n/a	n/a	n/a	n/a	n/a	n/a	n/a	n/a	n/a	n/a	547.1388997002505	549.1531135002151	2.01	n/a	n/a	n/a	n/a	n/a	n/a	n/a	n/a	n/a	n/a	n/a	n/a	n/a	n/a	n/a	n/a	n/a	n/a	n/a	n/a	n/a	n/a	n/a	n/a	n/a	n/a	n/a	n/a	n/a	n/a	n/a	n/a	n/a	n/a	n/a	n/a	n/a	n/a	n/a	n/a	n/a	n/a	n/a	n/a	n/a	n/a	n/a	n/a	n/a	n/a	n/a	4.1997991502285e-06	utils/nb_masks/NeuScrambledFW_09F_NE_O.BMP	0.1498034000396728	9.0	4.00003045797348e-06	0.0315509000793099	NimStim_Database/Images/09F_NE_O.BMP	3.3997930586338043e-06	utils/nb_masks/NeuScrambledBW_09F_NE_O.BMP	0.0334375002421438	6.400048732757568e-06	MR2_database/wm05.tif	0.0005830000154674	n/a	n/a	n/a	n/a	right	0.3346467996016145	549.7524824002758	550.7513562999666	n/a	n/a	n/a	n/a	n/a	n/a	n/a	n/a	n/a	n/a	n/a	n/a	n/a	n/a	n/a	n/a	45	1	2023-03-15_18h03.21.239	test_final	2022.2.4	60.08734306734811	n/a
n/a	n/a	n/a	n/a	n/a	3.0	n/a	n/a	n/a	n/a	n/a	n/a	n/a	n/a	n/a	n/a	n/a	n/a	n/a	n/a	n/a	n/a	n/a	n/a	n/a	n/a	0.0	0.0	0.0	2.0	1.0	0.0	1.0	0.0	n/a	n/a	n/a	n/a	n/a	n/a	n/a	n/a	0.0	0.0	0.0	0.0	n/a	n/a	n/a	n/a	n/a	n/a	n/a	n/a	n/a	n/a	n/a	n/a	n/a	n/a	n/a	n/a	n/a	n/a	n/a	n/a	n/a	n/a	n/a	n/a	n/a	n/a	550.7513562999666	550.7513562999666	2.0	0.7862076000310481	551.5673179998994	551.5673179998994	551.5673179998994	551.5673179998994	551.5673179998994	551.5673179998994	1.0	0.6932406001724303	n/a	n/a	n/a	n/a	n/a	n/a	n/a	n/a	n/a	n/a	n/a	n/a	n/a	n/a	n/a	n/a	n/a	n/a	n/a	n/a	n/a	n/a	n/a	n/a	n/a	n/a	n/a	n/a	n/a	n/a	n/a	n/a	n/a	n/a	n/a	n/a	n/a	n/a	n/a	n/a	n/a	n/a	n/a	n/a	n/a	n/a	n/a	n/a	n/a	n/a	n/a	n/a	n/a	n/a	n/a	n/a	n/a	n/a	n/a	n/a	n/a	n/a	n/a	n/a	n/a	n/a	45	1	2023-03-15_18h03.21.239	test_final	2022.2.4	60.08734306734811	n/a
n/a	n/a	n/a	n/a	n/a	3.0	n/a	n/a	n/a	n/a	n/a	n/a	n/a	n/a	n/a	n/a	n/a	n/a	n/a	n/a	n/a	n/a	n/a	n/a	n/a	n/a	0.0	0.0	0.0	2.0	1.0	0.0	1.0	0.0	n/a	n/a	n/a	n/a	n/a	n/a	n/a	n/a	n/a	n/a	n/a	n/a	n/a	n/a	n/a	n/a	n/a	n/a	n/a	n/a	n/a	n/a	n/a	n/a	n/a	n/a	n/a	n/a	n/a	n/a	n/a	n/a	n/a	n/a	n/a	n/a	n/a	n/a	n/a	n/a	n/a	n/a	n/a	n/a	n/a	n/a	n/a	n/a	n/a	n/a	552.2830161000602	n/a	n/a	n/a	n/a	n/a	n/a	n/a	n/a	n/a	n/a	n/a	n/a	n/a	n/a	n/a	n/a	n/a	n/a	n/a	n/a	n/a	n/a	n/a	n/a	n/a	n/a	n/a	n/a	n/a	n/a	n/a	n/a	n/a	n/a	n/a	n/a	n/a	n/a	n/a	n/a	n/a	n/a	n/a	n/a	n/a	n/a	n/a	n/a	n/a	n/a	n/a	n/a	n/a	n/a	n/a	n/a	n/a	n/a	n/a	n/a	n/a	n/a	n/a	n/a	n/a	45	1	2023-03-15_18h03.21.239	test_final	2022.2.4	60.08734306734811	n/a
n/a	utils/nb_masks/NeuScrambledFW_15F_NE_C.BMP	utils/nb_masks/NeuScrambledBW_15F_NE_C.BMP	n/a	n/a	3.0	n/a	n/a	n/a	n/a	n/a	n/a	n/a	n/a	n/a	n/a	n/a	n/a	n/a	n/a	n/a	n/a	n/a	n/a	n/a	n/a	0.0	0.0	0.0	2.0	2.0	0.0	2.0	0.0	n/a	n/a	n/a	n/a	0.0	0.0	0.0	0.0	n/a	n/a	n/a	n/a	n/a	n/a	n/a	n/a	n/a	n/a	n/a	n/a	n/a	n/a	n/a	n/a	n/a	554.2976247002371	556.511621600017	2.2099999999999955	n/a	n/a	n/a	n/a	n/a	n/a	n/a	n/a	n/a	n/a	n/a	n/a	n/a	n/a	n/a	n/a	n/a	n/a	n/a	n/a	n/a	n/a	n/a	n/a	n/a	n/a	n/a	n/a	n/a	n/a	n/a	n/a	n/a	n/a	n/a	n/a	n/a	n/a	n/a	n/a	n/a	n/a	n/a	n/a	n/a	n/a	n/a	n/a	n/a	n/a	n/a	3.900378942489624e-06	utils/nb_masks/NeuScrambledFW_15F_NE_C.BMP	0.1662689000368118	10.0	3.699678927659989e-06	0.0320802996866405	utils/no_prime.png	3.600027412176132e-06	utils/nb_masks/NeuScrambledBW_15F_NE_C.BMP	0.0331948003731668	4.4996850192546844e-06	MR2_database/am05.tif	0.0005038999952375	557.511332700029	557.511332700029	space	0.7782707996666431	n/a	n/a	n/a	n/a	n/a	n/a	n/a	n/a	n/a	n/a	n/a	n/a	n/a	n/a	n/a	n/a	n/a	n/a	n/a	n/a	45	1	2023-03-15_18h03.21.239	test_final	2022.2.4	60.08734306734811	n/a
n/a	n/a	n/a	n/a	n/a	3.0	n/a	n/a	n/a	n/a	n/a	n/a	n/a	n/a	n/a	n/a	n/a	n/a	n/a	n/a	n/a	n/a	n/a	n/a	n/a	n/a	0.0	0.0	0.0	2.0	2.0	0.0	2.0	0.0	n/a	n/a	n/a	n/a	n/a	n/a	n/a	n/a	n/a	n/a	n/a	n/a	n/a	n/a	n/a	n/a	n/a	n/a	n/a	n/a	n/a	n/a	n/a	n/a	n/a	n/a	n/a	n/a	n/a	n/a	n/a	n/a	n/a	n/a	n/a	n/a	n/a	n/a	n/a	n/a	n/a	n/a	n/a	n/a	n/a	n/a	n/a	n/a	n/a	n/a	558.3097181003541	n/a	n/a	n/a	n/a	n/a	n/a	n/a	n/a	n/a	n/a	n/a	n/a	n/a	n/a	n/a	n/a	n/a	n/a	n/a	n/a	n/a	n/a	n/a	n/a	n/a	n/a	n/a	n/a	n/a	n/a	n/a	n/a	n/a	n/a	n/a	n/a	n/a	n/a	n/a	n/a	n/a	n/a	n/a	n/a	n/a	n/a	n/a	n/a	n/a	n/a	n/a	n/a	n/a	n/a	n/a	n/a	n/a	n/a	n/a	n/a	n/a	n/a	n/a	n/a	n/a	45	1	2023-03-15_18h03.21.239	test_final	2022.2.4	60.08734306734811	n/a
n/a	utils/nb_masks/EmoScrambledFW_06F_AN_C.BMP	utils/nb_masks/EmoScrambledBW_06F_AN_C.BMP	n/a	n/a	3.0	n/a	n/a	n/a	n/a	n/a	n/a	n/a	n/a	n/a	n/a	n/a	n/a	n/a	n/a	n/a	n/a	n/a	n/a	n/a	n/a	0.0	0.0	0.0	2.0	3.0	0.0	3.0	0.0	0.0	0.0	0.0	0.0	n/a	n/a	n/a	n/a	n/a	n/a	n/a	n/a	n/a	n/a	n/a	n/a	n/a	n/a	n/a	n/a	n/a	n/a	n/a	n/a	n/a	560.3242538003251	562.4883627002127	2.1599999999999966	n/a	n/a	n/a	n/a	n/a	n/a	n/a	n/a	n/a	n/a	n/a	n/a	n/a	n/a	n/a	n/a	n/a	n/a	n/a	n/a	n/a	n/a	n/a	n/a	n/a	n/a	n/a	n/a	n/a	n/a	n/a	n/a	n/a	n/a	n/a	n/a	n/a	n/a	n/a	n/a	n/a	n/a	n/a	n/a	n/a	n/a	n/a	n/a	n/a	n/a	n/a	3.799796104431152e-06	utils/nb_masks/EmoScrambledFW_06F_AN_C.BMP	0.1000707997009158	6.0	3.799796104431152e-06	0.0319252000190317	utils/no_prime.png	3.200024366378784e-06	utils/nb_masks/EmoScrambledBW_06F_AN_C.BMP	0.0331651996821165	4.500150680541992e-06	MR2_database/wf04.tif	0.0004538004286587	n/a	n/a	n/a	n/a	left	0.5350383999757469	563.2305149002932	564.2367100999691	n/a	n/a	n/a	n/a	n/a	n/a	n/a	n/a	n/a	n/a	n/a	n/a	n/a	n/a	n/a	n/a	45	1	2023-03-15_18h03.21.239	test_final	2022.2.4	60.08734306734811	n/a
n/a	n/a	n/a	n/a	n/a	3.0	n/a	n/a	n/a	n/a	n/a	n/a	n/a	n/a	n/a	n/a	n/a	n/a	n/a	n/a	n/a	n/a	n/a	n/a	n/a	n/a	0.0	0.0	0.0	2.0	3.0	0.0	3.0	0.0	n/a	n/a	n/a	n/a	n/a	n/a	n/a	n/a	0.0	0.0	0.0	0.0	n/a	n/a	n/a	n/a	n/a	n/a	n/a	n/a	n/a	n/a	n/a	n/a	n/a	n/a	n/a	n/a	n/a	n/a	n/a	n/a	n/a	n/a	n/a	n/a	n/a	n/a	564.2367100999691	564.2367100999691	2.0	1.232200900092721	565.5018464000896	565.5018464000896	565.5018464000896	565.5018464000896	565.5018464000896	565.5018464000896	4.0	0.8641744996421039	n/a	n/a	n/a	n/a	n/a	n/a	n/a	n/a	n/a	n/a	n/a	n/a	n/a	n/a	n/a	n/a	n/a	n/a	n/a	n/a	n/a	n/a	n/a	n/a	n/a	n/a	n/a	n/a	n/a	n/a	n/a	n/a	n/a	n/a	n/a	n/a	n/a	n/a	n/a	n/a	n/a	n/a	n/a	n/a	n/a	n/a	n/a	n/a	n/a	n/a	n/a	n/a	n/a	n/a	n/a	n/a	n/a	n/a	n/a	n/a	n/a	n/a	n/a	n/a	n/a	n/a	45	1	2023-03-15_18h03.21.239	test_final	2022.2.4	60.08734306734811	n/a
n/a	n/a	n/a	n/a	n/a	3.0	n/a	n/a	n/a	n/a	n/a	n/a	n/a	n/a	n/a	n/a	n/a	n/a	n/a	n/a	n/a	n/a	n/a	n/a	n/a	n/a	0.0	0.0	0.0	2.0	3.0	0.0	3.0	0.0	n/a	n/a	n/a	n/a	n/a	n/a	n/a	n/a	n/a	n/a	n/a	n/a	n/a	n/a	n/a	n/a	n/a	n/a	n/a	n/a	n/a	n/a	n/a	n/a	n/a	n/a	n/a	n/a	n/a	n/a	n/a	n/a	n/a	n/a	n/a	n/a	n/a	n/a	n/a	n/a	n/a	n/a	n/a	n/a	n/a	n/a	n/a	n/a	n/a	n/a	566.3844222002663	n/a	n/a	n/a	n/a	n/a	n/a	n/a	n/a	n/a	n/a	n/a	n/a	n/a	n/a	n/a	n/a	n/a	n/a	n/a	n/a	n/a	n/a	n/a	n/a	n/a	n/a	n/a	n/a	n/a	n/a	n/a	n/a	n/a	n/a	n/a	n/a	n/a	n/a	n/a	n/a	n/a	n/a	n/a	n/a	n/a	n/a	n/a	n/a	n/a	n/a	n/a	n/a	n/a	n/a	n/a	n/a	n/a	n/a	n/a	n/a	n/a	n/a	n/a	n/a	n/a	45	1	2023-03-15_18h03.21.239	test_final	2022.2.4	60.08734306734811	n/a
n/a	utils/nb_masks/EmoScrambledFW_03F_AN_C.BMP	utils/nb_masks/EmoScrambledBW_03F_AN_C.BMP	n/a	n/a	3.0	n/a	n/a	n/a	n/a	n/a	n/a	n/a	n/a	n/a	n/a	n/a	n/a	n/a	n/a	n/a	n/a	n/a	n/a	n/a	n/a	0.0	0.0	0.0	2.0	4.0	0.0	4.0	0.0	0.0	0.0	0.0	0.0	n/a	n/a	n/a	n/a	n/a	n/a	n/a	n/a	n/a	n/a	n/a	n/a	n/a	n/a	n/a	n/a	n/a	n/a	n/a	n/a	n/a	568.3988006999716	570.479578900151	2.0799999999999983	n/a	n/a	n/a	n/a	n/a	n/a	n/a	n/a	n/a	n/a	n/a	n/a	n/a	n/a	n/a	n/a	n/a	n/a	n/a	n/a	n/a	n/a	n/a	n/a	n/a	n/a	n/a	n/a	n/a	n/a	n/a	n/a	n/a	n/a	n/a	n/a	n/a	n/a	n/a	n/a	n/a	n/a	n/a	n/a	n/a	n/a	n/a	n/a	n/a	n/a	n/a	4.00003045797348e-06	utils/nb_masks/EmoScrambledFW_03F_AN_C.BMP	0.1161525999195873	7.0	3.699678927659989e-06	0.0322101996280252	NimStim_Database/Images/03F_AN_C.BMP	3.3997930586338043e-06	utils/nb_masks/EmoScrambledBW_03F_AN_C.BMP	0.0328973000869154	4.4996850192546844e-06	MR2_database/bm09.tif	0.0004406999796628	n/a	n/a	n/a	n/a	right	0.59258639998734	571.3019469003193	572.3109198999591	n/a	n/a	n/a	n/a	n/a	n/a	n/a	n/a	n/a	n/a	n/a	n/a	n/a	n/a	n/a	n/a	45	1	2023-03-15_18h03.21.239	test_final	2022.2.4	60.08734306734811	n/a
n/a	n/a	n/a	n/a	n/a	3.0	n/a	n/a	n/a	n/a	n/a	n/a	n/a	n/a	n/a	n/a	n/a	n/a	n/a	n/a	n/a	n/a	n/a	n/a	n/a	n/a	0.0	0.0	0.0	2.0	4.0	0.0	4.0	0.0	n/a	n/a	n/a	n/a	n/a	n/a	n/a	n/a	0.0	0.0	0.0	0.0	n/a	n/a	n/a	n/a	n/a	n/a	n/a	n/a	n/a	n/a	n/a	n/a	n/a	n/a	n/a	n/a	n/a	n/a	n/a	n/a	n/a	n/a	n/a	n/a	n/a	n/a	572.3109198999591	572.3109198999591	2.0	2.502085099928081	574.8417033003643	574.8417033003643	574.8417033003643	574.8417033003643	574.8417033003643	574.8417033003643	1.0	0.65408890042454	n/a	n/a	n/a	n/a	n/a	n/a	n/a	n/a	n/a	n/a	n/a	n/a	n/a	n/a	n/a	n/a	n/a	n/a	n/a	n/a	n/a	n/a	n/a	n/a	n/a	n/a	n/a	n/a	n/a	n/a	n/a	n/a	n/a	n/a	n/a	n/a	n/a	n/a	n/a	n/a	n/a	n/a	n/a	n/a	n/a	n/a	n/a	n/a	n/a	n/a	n/a	n/a	n/a	n/a	n/a	n/a	n/a	n/a	n/a	n/a	n/a	n/a	n/a	n/a	n/a	n/a	45	1	2023-03-15_18h03.21.239	test_final	2022.2.4	60.08734306734811	n/a
n/a	n/a	n/a	n/a	n/a	3.0	n/a	n/a	n/a	n/a	n/a	n/a	n/a	n/a	n/a	n/a	n/a	n/a	n/a	n/a	n/a	n/a	n/a	n/a	n/a	n/a	0.0	0.0	0.0	2.0	4.0	0.0	4.0	0.0	n/a	n/a	n/a	n/a	n/a	n/a	n/a	n/a	n/a	n/a	n/a	n/a	n/a	n/a	n/a	n/a	n/a	n/a	n/a	n/a	n/a	n/a	n/a	n/a	n/a	n/a	n/a	n/a	n/a	n/a	n/a	n/a	n/a	n/a	n/a	n/a	n/a	n/a	n/a	n/a	n/a	n/a	n/a	n/a	n/a	n/a	n/a	n/a	n/a	n/a	575.5243816003203	n/a	n/a	n/a	n/a	n/a	n/a	n/a	n/a	n/a	n/a	n/a	n/a	n/a	n/a	n/a	n/a	n/a	n/a	n/a	n/a	n/a	n/a	n/a	n/a	n/a	n/a	n/a	n/a	n/a	n/a	n/a	n/a	n/a	n/a	n/a	n/a	n/a	n/a	n/a	n/a	n/a	n/a	n/a	n/a	n/a	n/a	n/a	n/a	n/a	n/a	n/a	n/a	n/a	n/a	n/a	n/a	n/a	n/a	n/a	n/a	n/a	n/a	n/a	n/a	n/a	45	1	2023-03-15_18h03.21.239	test_final	2022.2.4	60.08734306734811	n/a
n/a	utils/nb_masks/EmoScrambledFW_32M_AN_C.BMP	utils/nb_masks/EmoScrambledBW_32M_AN_C.BMP	n/a	n/a	3.0	n/a	n/a	n/a	n/a	n/a	n/a	n/a	n/a	n/a	n/a	n/a	n/a	n/a	n/a	n/a	n/a	n/a	n/a	n/a	n/a	0.0	0.0	0.0	2.0	5.0	0.0	5.0	0.0	0.0	0.0	0.0	0.0	n/a	n/a	n/a	n/a	n/a	n/a	n/a	n/a	n/a	n/a	n/a	n/a	n/a	n/a	n/a	n/a	n/a	n/a	n/a	n/a	n/a	577.5387865002267	579.736299900338	2.189999999999996	n/a	n/a	n/a	n/a	n/a	n/a	n/a	n/a	n/a	n/a	n/a	n/a	n/a	n/a	n/a	n/a	n/a	n/a	n/a	n/a	n/a	n/a	n/a	n/a	n/a	n/a	n/a	n/a	n/a	n/a	n/a	n/a	n/a	n/a	n/a	n/a	n/a	n/a	n/a	n/a	n/a	n/a	n/a	n/a	n/a	n/a	n/a	n/a	n/a	n/a	n/a	3.799796104431152e-06	utils/nb_masks/EmoScrambledFW_32M_AN_C.BMP	0.1493551996536553	9.0	3.600027412176132e-06	0.0320052001625299	NimStim_Database/Images/32M_AN_C.BMP	3.600027412176132e-06	utils/nb_masks/EmoScrambledBW_32M_AN_C.BMP	0.0333370002917945	4.70038503408432e-06	MR2_database/bf04.tif	0.0004241000860929	n/a	n/a	n/a	n/a	right	0.4770192997530103	580.4720057002269	n/a	n/a	n/a	n/a	n/a	n/a	n/a	n/a	n/a	n/a	n/a	n/a	n/a	n/a	n/a	n/a	n/a	45	1	2023-03-15_18h03.21.239	test_final	2022.2.4	60.08734306734811	n/a
n/a	n/a	n/a	n/a	n/a	3.0	n/a	n/a	n/a	n/a	n/a	n/a	n/a	n/a	n/a	n/a	n/a	n/a	n/a	n/a	n/a	n/a	n/a	n/a	n/a	n/a	0.0	0.0	0.0	2.0	5.0	0.0	5.0	0.0	n/a	n/a	n/a	n/a	n/a	n/a	n/a	n/a	0.0	0.0	0.0	0.0	n/a	n/a	n/a	n/a	n/a	n/a	n/a	n/a	n/a	n/a	n/a	n/a	n/a	n/a	n/a	n/a	n/a	n/a	n/a	n/a	n/a	n/a	n/a	n/a	n/a	n/a	581.4843687000684	581.4843687000684	2.0	0.543917499948293	582.0505146002397	582.0505146002397	582.0505146002397	582.0505146002397	582.0505146002397	582.0505146002397	4.0	0.3958781999535858	n/a	n/a	n/a	n/a	n/a	n/a	n/a	n/a	n/a	n/a	n/a	n/a	n/a	n/a	n/a	n/a	n/a	n/a	n/a	n/a	n/a	n/a	n/a	n/a	n/a	n/a	n/a	n/a	n/a	n/a	n/a	n/a	n/a	n/a	n/a	n/a	n/a	n/a	n/a	n/a	n/a	n/a	n/a	n/a	n/a	n/a	n/a	n/a	n/a	n/a	n/a	n/a	n/a	n/a	n/a	n/a	n/a	n/a	n/a	n/a	n/a	n/a	n/a	n/a	n/a	n/a	45	1	2023-03-15_18h03.21.239	test_final	2022.2.4	60.08734306734811	n/a
n/a	n/a	n/a	n/a	n/a	3.0	n/a	n/a	n/a	n/a	n/a	n/a	n/a	n/a	n/a	n/a	n/a	n/a	n/a	n/a	n/a	n/a	n/a	n/a	n/a	n/a	0.0	0.0	0.0	2.0	5.0	0.0	5.0	0.0	n/a	n/a	n/a	n/a	n/a	n/a	n/a	n/a	n/a	n/a	n/a	n/a	n/a	n/a	n/a	n/a	n/a	n/a	n/a	n/a	n/a	n/a	n/a	n/a	n/a	n/a	n/a	n/a	n/a	n/a	n/a	n/a	n/a	n/a	n/a	n/a	n/a	n/a	n/a	n/a	n/a	n/a	n/a	n/a	n/a	n/a	n/a	n/a	n/a	n/a	582.4666204000823	n/a	n/a	n/a	n/a	n/a	n/a	n/a	n/a	n/a	n/a	n/a	n/a	n/a	n/a	n/a	n/a	n/a	n/a	n/a	n/a	n/a	n/a	n/a	n/a	n/a	n/a	n/a	n/a	n/a	n/a	n/a	n/a	n/a	n/a	n/a	n/a	n/a	n/a	n/a	n/a	n/a	n/a	n/a	n/a	n/a	n/a	n/a	n/a	n/a	n/a	n/a	n/a	n/a	n/a	n/a	n/a	n/a	n/a	n/a	n/a	n/a	n/a	n/a	n/a	n/a	45	1	2023-03-15_18h03.21.239	test_final	2022.2.4	60.08734306734811	n/a
n/a	utils/nb_masks/EmoScrambledFW_26M_AN_C.BMP	utils/nb_masks/EmoScrambledBW_26M_AN_C.BMP	n/a	n/a	3.0	n/a	n/a	n/a	n/a	n/a	n/a	n/a	n/a	n/a	n/a	n/a	n/a	n/a	n/a	n/a	n/a	n/a	n/a	n/a	n/a	0.0	0.0	0.0	2.0	6.0	0.0	6.0	0.0	0.0	0.0	0.0	0.0	n/a	n/a	n/a	n/a	n/a	n/a	n/a	n/a	n/a	n/a	n/a	n/a	n/a	n/a	n/a	n/a	n/a	n/a	n/a	n/a	n/a	584.4808768001385	586.5952139999717	2.099999999999998	n/a	n/a	n/a	n/a	n/a	n/a	n/a	n/a	n/a	n/a	n/a	n/a	n/a	n/a	n/a	n/a	n/a	n/a	n/a	n/a	n/a	n/a	n/a	n/a	n/a	n/a	n/a	n/a	n/a	n/a	n/a	n/a	n/a	n/a	n/a	n/a	n/a	n/a	n/a	n/a	n/a	n/a	n/a	n/a	n/a	n/a	n/a	n/a	n/a	n/a	n/a	3.899913281202316e-06	utils/nb_masks/EmoScrambledFW_26M_AN_C.BMP	0.1497768000699579	9.0	3.80026176571846e-06	0.0312258000485599	NimStim_Database/Images/26M_AN_C.BMP	3.200024366378784e-06	utils/nb_masks/EmoScrambledBW_26M_AN_C.BMP	0.0334025998599827	4.500150680541992e-06	MR2_database/bm01.tif	0.0004583001136779	n/a	n/a	n/a	n/a	right	0.6662814998999238	587.5245743999258	588.5266660000198	n/a	n/a	n/a	n/a	n/a	n/a	n/a	n/a	n/a	n/a	n/a	n/a	n/a	n/a	n/a	n/a	45	1	2023-03-15_18h03.21.239	test_final	2022.2.4	60.08734306734811	n/a
n/a	n/a	n/a	n/a	n/a	3.0	n/a	n/a	n/a	n/a	n/a	n/a	n/a	n/a	n/a	n/a	n/a	n/a	n/a	n/a	n/a	n/a	n/a	n/a	n/a	n/a	0.0	0.0	0.0	2.0	6.0	0.0	6.0	0.0	n/a	n/a	n/a	n/a	n/a	n/a	n/a	n/a	0.0	0.0	0.0	0.0	n/a	n/a	n/a	n/a	n/a	n/a	n/a	n/a	n/a	n/a	n/a	n/a	n/a	n/a	n/a	n/a	n/a	n/a	n/a	n/a	n/a	n/a	n/a	n/a	n/a	n/a	588.5266660000198	588.5266660000198	2.0	0.5948712001554668	589.1428144001402	589.1428144001402	589.1428144001402	589.1428144001402	589.1428144001402	589.1428144001402	4.0	0.3805058998987078	n/a	n/a	n/a	n/a	n/a	n/a	n/a	n/a	n/a	n/a	n/a	n/a	n/a	n/a	n/a	n/a	n/a	n/a	n/a	n/a	n/a	n/a	n/a	n/a	n/a	n/a	n/a	n/a	n/a	n/a	n/a	n/a	n/a	n/a	n/a	n/a	n/a	n/a	n/a	n/a	n/a	n/a	n/a	n/a	n/a	n/a	n/a	n/a	n/a	n/a	n/a	n/a	n/a	n/a	n/a	n/a	n/a	n/a	n/a	n/a	n/a	n/a	n/a	n/a	n/a	n/a	45	1	2023-03-15_18h03.21.239	test_final	2022.2.4	60.08734306734811	n/a
n/a	n/a	n/a	n/a	n/a	3.0	n/a	n/a	n/a	n/a	n/a	n/a	n/a	n/a	n/a	n/a	n/a	n/a	n/a	n/a	n/a	n/a	n/a	n/a	n/a	n/a	0.0	0.0	0.0	2.0	6.0	0.0	6.0	0.0	n/a	n/a	n/a	n/a	n/a	n/a	n/a	n/a	n/a	n/a	n/a	n/a	n/a	n/a	n/a	n/a	n/a	n/a	n/a	n/a	n/a	n/a	n/a	n/a	n/a	n/a	n/a	n/a	n/a	n/a	n/a	n/a	n/a	n/a	n/a	n/a	n/a	n/a	n/a	n/a	n/a	n/a	n/a	n/a	n/a	n/a	n/a	n/a	n/a	n/a	589.5419679000042	n/a	n/a	n/a	n/a	n/a	n/a	n/a	n/a	n/a	n/a	n/a	n/a	n/a	n/a	n/a	n/a	n/a	n/a	n/a	n/a	n/a	n/a	n/a	n/a	n/a	n/a	n/a	n/a	n/a	n/a	n/a	n/a	n/a	n/a	n/a	n/a	n/a	n/a	n/a	n/a	n/a	n/a	n/a	n/a	n/a	n/a	n/a	n/a	n/a	n/a	n/a	n/a	n/a	n/a	n/a	n/a	n/a	n/a	n/a	n/a	n/a	n/a	n/a	n/a	n/a	45	1	2023-03-15_18h03.21.239	test_final	2022.2.4	60.08734306734811	n/a
n/a	utils/nb_masks/EmoScrambledFW_25M_AN_C.BMP	utils/nb_masks/EmoScrambledBW_25M_AN_C.BMP	n/a	n/a	3.0	n/a	n/a	n/a	n/a	n/a	n/a	n/a	n/a	n/a	n/a	n/a	n/a	n/a	n/a	n/a	n/a	n/a	n/a	n/a	n/a	0.0	0.0	0.0	2.0	7.0	0.0	7.0	0.0	0.0	0.0	0.0	0.0	n/a	n/a	n/a	n/a	n/a	n/a	n/a	n/a	n/a	n/a	n/a	n/a	n/a	n/a	n/a	n/a	n/a	n/a	n/a	n/a	n/a	591.5564915002324	593.5709645999596	2.01	n/a	n/a	n/a	n/a	n/a	n/a	n/a	n/a	n/a	n/a	n/a	n/a	n/a	n/a	n/a	n/a	n/a	n/a	n/a	n/a	n/a	n/a	n/a	n/a	n/a	n/a	n/a	n/a	n/a	n/a	n/a	n/a	n/a	n/a	n/a	n/a	n/a	n/a	n/a	n/a	n/a	n/a	n/a	n/a	n/a	n/a	n/a	n/a	n/a	n/a	n/a	3.80026176571846e-06	utils/nb_masks/EmoScrambledFW_25M_AN_C.BMP	0.1493094000034034	9.0	3.600027412176132e-06	0.0319775999523699	NimStim_Database/Images/25M_AN_C.BMP	3.2996758818626404e-06	utils/nb_masks/EmoScrambledBW_25M_AN_C.BMP	0.0334318997338414	4.599802196025848e-06	MR2_database/wf06.tif	0.0004463996738195	n/a	n/a	n/a	n/a	left	0.6751147997565567	594.5099035003223	595.5188054000027	n/a	n/a	n/a	n/a	n/a	n/a	n/a	n/a	n/a	n/a	n/a	n/a	n/a	n/a	n/a	n/a	45	1	2023-03-15_18h03.21.239	test_final	2022.2.4	60.08734306734811	n/a
n/a	n/a	n/a	n/a	n/a	3.0	n/a	n/a	n/a	n/a	n/a	n/a	n/a	n/a	n/a	n/a	n/a	n/a	n/a	n/a	n/a	n/a	n/a	n/a	n/a	n/a	0.0	0.0	0.0	2.0	7.0	0.0	7.0	0.0	n/a	n/a	n/a	n/a	n/a	n/a	n/a	n/a	0.0	0.0	0.0	0.0	n/a	n/a	n/a	n/a	n/a	n/a	n/a	n/a	n/a	n/a	n/a	n/a	n/a	n/a	n/a	n/a	n/a	n/a	n/a	n/a	n/a	n/a	n/a	n/a	n/a	n/a	595.5188054000027	595.5188054000027	2.0	0.7587656998075545	596.3011900000274	596.3011900000274	596.3011900000274	596.3011900000274	596.3011900000274	596.3011900000274	4.0	0.9058866002596916	n/a	n/a	n/a	n/a	n/a	n/a	n/a	n/a	n/a	n/a	n/a	n/a	n/a	n/a	n/a	n/a	n/a	n/a	n/a	n/a	n/a	n/a	n/a	n/a	n/a	n/a	n/a	n/a	n/a	n/a	n/a	n/a	n/a	n/a	n/a	n/a	n/a	n/a	n/a	n/a	n/a	n/a	n/a	n/a	n/a	n/a	n/a	n/a	n/a	n/a	n/a	n/a	n/a	n/a	n/a	n/a	n/a	n/a	n/a	n/a	n/a	n/a	n/a	n/a	n/a	n/a	45	1	2023-03-15_18h03.21.239	test_final	2022.2.4	60.08734306734811	n/a
n/a	n/a	n/a	n/a	n/a	3.0	n/a	n/a	n/a	n/a	n/a	n/a	n/a	n/a	n/a	n/a	n/a	n/a	n/a	n/a	n/a	n/a	n/a	n/a	n/a	n/a	0.0	0.0	0.0	2.0	7.0	0.0	7.0	0.0	n/a	n/a	n/a	n/a	n/a	n/a	n/a	n/a	n/a	n/a	n/a	n/a	n/a	n/a	n/a	n/a	n/a	n/a	n/a	n/a	n/a	n/a	n/a	n/a	n/a	n/a	n/a	n/a	n/a	n/a	n/a	n/a	n/a	n/a	n/a	n/a	n/a	n/a	n/a	n/a	n/a	n/a	n/a	n/a	n/a	n/a	n/a	n/a	n/a	n/a	597.233608300332	n/a	n/a	n/a	n/a	n/a	n/a	n/a	n/a	n/a	n/a	n/a	n/a	n/a	n/a	n/a	n/a	n/a	n/a	n/a	n/a	n/a	n/a	n/a	n/a	n/a	n/a	n/a	n/a	n/a	n/a	n/a	n/a	n/a	n/a	n/a	n/a	n/a	n/a	n/a	n/a	n/a	n/a	n/a	n/a	n/a	n/a	n/a	n/a	n/a	n/a	n/a	n/a	n/a	n/a	n/a	n/a	n/a	n/a	n/a	n/a	n/a	n/a	n/a	n/a	n/a	45	1	2023-03-15_18h03.21.239	test_final	2022.2.4	60.08734306734811	n/a
n/a	utils/nb_masks/NeuScrambledFW_31M_NE_C.BMP	utils/nb_masks/NeuScrambledBW_31M_NE_C.BMP	n/a	n/a	3.0	n/a	n/a	n/a	n/a	n/a	n/a	n/a	n/a	n/a	n/a	n/a	n/a	n/a	n/a	n/a	n/a	n/a	n/a	n/a	n/a	0.0	0.0	0.0	2.0	8.0	0.0	8.0	0.0	0.0	0.0	0.0	0.0	n/a	n/a	n/a	n/a	n/a	n/a	n/a	n/a	n/a	n/a	n/a	n/a	n/a	n/a	n/a	n/a	n/a	n/a	n/a	n/a	n/a	599.2482548002154	601.7287751999684	2.46999999999999	n/a	n/a	n/a	n/a	n/a	n/a	n/a	n/a	n/a	n/a	n/a	n/a	n/a	n/a	n/a	n/a	n/a	n/a	n/a	n/a	n/a	n/a	n/a	n/a	n/a	n/a	n/a	n/a	n/a	n/a	n/a	n/a	n/a	n/a	n/a	n/a	n/a	n/a	n/a	n/a	n/a	n/a	n/a	n/a	n/a	n/a	n/a	n/a	n/a	n/a	n/a	3.799796104431152e-06	utils/nb_masks/NeuScrambledFW_31M_NE_C.BMP	0.1496043000370264	9.0	3.5995617508888245e-06	0.0318121998570859	NimStim_Database/Images/31M_NE_C.BMP	3.400258719921112e-06	utils/nb_masks/NeuScrambledBW_31M_NE_C.BMP	0.0331174000166356	4.599802196025848e-06	MR2_database/bf16.tif	0.0004773996770381	n/a	n/a	n/a	n/a	right	0.6921846996992826	602.6795590003021	n/a	n/a	n/a	n/a	n/a	n/a	n/a	n/a	n/a	n/a	n/a	n/a	n/a	n/a	n/a	n/a	n/a	45	1	2023-03-15_18h03.21.239	test_final	2022.2.4	60.08734306734811	n/a
n/a	n/a	n/a	n/a	n/a	3.0	n/a	n/a	n/a	n/a	n/a	n/a	n/a	n/a	n/a	n/a	n/a	n/a	n/a	n/a	n/a	n/a	n/a	n/a	n/a	n/a	0.0	0.0	0.0	2.0	8.0	0.0	8.0	0.0	n/a	n/a	n/a	n/a	n/a	n/a	n/a	n/a	0.0	0.0	0.0	0.0	n/a	n/a	n/a	n/a	n/a	n/a	n/a	n/a	n/a	n/a	n/a	n/a	n/a	n/a	n/a	n/a	n/a	n/a	n/a	n/a	n/a	n/a	n/a	n/a	n/a	n/a	603.6930774003267	603.6930774003267	2.0	0.8194718002341688	604.5424077003263	604.5424077003263	604.5424077003263	604.5424077003263	604.5424077003263	604.5424077003263	4.0	0.932153099682182	n/a	n/a	n/a	n/a	n/a	n/a	n/a	n/a	n/a	n/a	n/a	n/a	n/a	n/a	n/a	n/a	n/a	n/a	n/a	n/a	n/a	n/a	n/a	n/a	n/a	n/a	n/a	n/a	n/a	n/a	n/a	n/a	n/a	n/a	n/a	n/a	n/a	n/a	n/a	n/a	n/a	n/a	n/a	n/a	n/a	n/a	n/a	n/a	n/a	n/a	n/a	n/a	n/a	n/a	n/a	n/a	n/a	n/a	n/a	n/a	n/a	n/a	n/a	n/a	n/a	n/a	45	1	2023-03-15_18h03.21.239	test_final	2022.2.4	60.08734306734811	n/a
n/a	n/a	n/a	n/a	n/a	3.0	n/a	n/a	n/a	n/a	n/a	n/a	n/a	n/a	n/a	n/a	n/a	n/a	n/a	n/a	n/a	n/a	n/a	n/a	n/a	n/a	0.0	0.0	0.0	2.0	8.0	0.0	8.0	0.0	n/a	n/a	n/a	n/a	n/a	n/a	n/a	n/a	n/a	n/a	n/a	n/a	n/a	n/a	n/a	n/a	n/a	n/a	n/a	n/a	n/a	n/a	n/a	n/a	n/a	n/a	n/a	n/a	n/a	n/a	n/a	n/a	n/a	n/a	n/a	n/a	n/a	n/a	n/a	n/a	n/a	n/a	n/a	n/a	n/a	n/a	n/a	n/a	n/a	n/a	605.4913428002037	n/a	n/a	n/a	n/a	n/a	n/a	n/a	n/a	n/a	n/a	n/a	n/a	n/a	n/a	n/a	n/a	n/a	n/a	n/a	n/a	n/a	n/a	n/a	n/a	n/a	n/a	n/a	n/a	n/a	n/a	n/a	n/a	n/a	n/a	n/a	n/a	n/a	n/a	n/a	n/a	n/a	n/a	n/a	n/a	n/a	n/a	n/a	n/a	n/a	n/a	n/a	n/a	n/a	n/a	n/a	n/a	n/a	n/a	n/a	n/a	n/a	n/a	n/a	n/a	n/a	45	1	2023-03-15_18h03.21.239	test_final	2022.2.4	60.08734306734811	n/a
n/a	utils/nb_masks/NeuScrambledFW_33M_NE_O.BMP	utils/nb_masks/NeuScrambledBW_33M_NE_O.BMP	n/a	n/a	3.0	n/a	n/a	n/a	n/a	n/a	n/a	n/a	n/a	n/a	n/a	n/a	n/a	n/a	n/a	n/a	n/a	n/a	n/a	n/a	n/a	0.0	0.0	0.0	2.0	9.0	0.0	9.0	0.0	0.0	0.0	0.0	0.0	n/a	n/a	n/a	n/a	n/a	n/a	n/a	n/a	n/a	n/a	n/a	n/a	n/a	n/a	n/a	n/a	n/a	n/a	n/a	n/a	n/a	607.5058577000163	609.9862911999226	2.4799999999999898	n/a	n/a	n/a	n/a	n/a	n/a	n/a	n/a	n/a	n/a	n/a	n/a	n/a	n/a	n/a	n/a	n/a	n/a	n/a	n/a	n/a	n/a	n/a	n/a	n/a	n/a	n/a	n/a	n/a	n/a	n/a	n/a	n/a	n/a	n/a	n/a	n/a	n/a	n/a	n/a	n/a	n/a	n/a	n/a	n/a	n/a	n/a	n/a	n/a	n/a	n/a	5.09992241859436e-06	utils/nb_masks/NeuScrambledFW_33M_NE_O.BMP	0.0997498999349772	6.0	3.700144588947296e-06	0.0320391003042459	utils/no_prime.png	3.3997930586338043e-06	utils/nb_masks/NeuScrambledBW_33M_NE_O.BMP	0.0330341001972556	4.400033503770828e-06	MR2_database/bf12.tif	0.0004602000117301	n/a	n/a	n/a	n/a	right	0.68376350030303	610.8806313001551	611.884353000205	n/a	n/a	n/a	n/a	n/a	n/a	n/a	n/a	n/a	n/a	n/a	n/a	n/a	n/a	n/a	n/a	45	1	2023-03-15_18h03.21.239	test_final	2022.2.4	60.08734306734811	n/a
n/a	n/a	n/a	n/a	n/a	3.0	n/a	n/a	n/a	n/a	n/a	n/a	n/a	n/a	n/a	n/a	n/a	n/a	n/a	n/a	n/a	n/a	n/a	n/a	n/a	n/a	0.0	0.0	0.0	2.0	9.0	0.0	9.0	0.0	n/a	n/a	n/a	n/a	n/a	n/a	n/a	n/a	0.0	0.0	0.0	0.0	n/a	n/a	n/a	n/a	n/a	n/a	n/a	n/a	n/a	n/a	n/a	n/a	n/a	n/a	n/a	n/a	n/a	n/a	n/a	n/a	n/a	n/a	n/a	n/a	n/a	n/a	611.884353000205	611.884353000205	2.0	0.7971357996575534	612.700134600047	612.700134600047	612.700134600047	612.700134600047	612.700134600047	612.700134600047	4.0	0.6982939001172781	n/a	n/a	n/a	n/a	n/a	n/a	n/a	n/a	n/a	n/a	n/a	n/a	n/a	n/a	n/a	n/a	n/a	n/a	n/a	n/a	n/a	n/a	n/a	n/a	n/a	n/a	n/a	n/a	n/a	n/a	n/a	n/a	n/a	n/a	n/a	n/a	n/a	n/a	n/a	n/a	n/a	n/a	n/a	n/a	n/a	n/a	n/a	n/a	n/a	n/a	n/a	n/a	n/a	n/a	n/a	n/a	n/a	n/a	n/a	n/a	n/a	n/a	n/a	n/a	n/a	n/a	45	1	2023-03-15_18h03.21.239	test_final	2022.2.4	60.08734306734811	n/a
n/a	n/a	n/a	n/a	n/a	3.0	n/a	n/a	n/a	n/a	n/a	n/a	n/a	n/a	n/a	n/a	n/a	n/a	n/a	n/a	n/a	n/a	n/a	n/a	n/a	n/a	0.0	0.0	0.0	2.0	9.0	0.0	9.0	0.0	n/a	n/a	n/a	n/a	n/a	n/a	n/a	n/a	n/a	n/a	n/a	n/a	n/a	n/a	n/a	n/a	n/a	n/a	n/a	n/a	n/a	n/a	n/a	n/a	n/a	n/a	n/a	n/a	n/a	n/a	n/a	n/a	n/a	n/a	n/a	n/a	n/a	n/a	n/a	n/a	n/a	n/a	n/a	n/a	n/a	n/a	n/a	n/a	n/a	n/a	613.415996900294	n/a	n/a	n/a	n/a	n/a	n/a	n/a	n/a	n/a	n/a	n/a	n/a	n/a	n/a	n/a	n/a	n/a	n/a	n/a	n/a	n/a	n/a	n/a	n/a	n/a	n/a	n/a	n/a	n/a	n/a	n/a	n/a	n/a	n/a	n/a	n/a	n/a	n/a	n/a	n/a	n/a	n/a	n/a	n/a	n/a	n/a	n/a	n/a	n/a	n/a	n/a	n/a	n/a	n/a	n/a	n/a	n/a	n/a	n/a	n/a	n/a	n/a	n/a	n/a	n/a	45	1	2023-03-15_18h03.21.239	test_final	2022.2.4	60.08734306734811	n/a
n/a	utils/nb_masks/NeuScrambledFW_13F_NE_C.BMP	utils/nb_masks/NeuScrambledBW_13F_NE_C.BMP	n/a	n/a	3.0	n/a	n/a	n/a	n/a	n/a	n/a	n/a	n/a	n/a	n/a	n/a	n/a	n/a	n/a	n/a	n/a	n/a	n/a	n/a	n/a	0.0	0.0	0.0	2.0	10.0	0.0	10.0	0.0	0.0	0.0	0.0	0.0	n/a	n/a	n/a	n/a	n/a	n/a	n/a	n/a	n/a	n/a	n/a	n/a	n/a	n/a	n/a	n/a	n/a	n/a	n/a	n/a	n/a	615.4304372002371	617.727933099959	2.289999999999994	n/a	n/a	n/a	n/a	n/a	n/a	n/a	n/a	n/a	n/a	n/a	n/a	n/a	n/a	n/a	n/a	n/a	n/a	n/a	n/a	n/a	n/a	n/a	n/a	n/a	n/a	n/a	n/a	n/a	n/a	n/a	n/a	n/a	n/a	n/a	n/a	n/a	n/a	n/a	n/a	n/a	n/a	n/a	n/a	n/a	n/a	n/a	n/a	n/a	n/a	n/a	3.80026176571846e-06	utils/nb_masks/NeuScrambledFW_13F_NE_C.BMP	0.1164161004126071	7.0	3.700144588947296e-06	0.0317111001349985	NimStim_Database/Images/13F_NE_C.BMP	3.4999102354049683e-06	utils/nb_masks/NeuScrambledBW_13F_NE_C.BMP	0.0335607999004423	4.1997991502285e-06	MR2_database/wm08.tif	0.0004968997091054	n/a	n/a	n/a	n/a	left	0.4894367000088095	618.4447449999861	n/a	n/a	n/a	n/a	n/a	n/a	n/a	n/a	n/a	n/a	n/a	n/a	n/a	n/a	n/a	n/a	n/a	45	1	2023-03-15_18h03.21.239	test_final	2022.2.4	60.08734306734811	n/a
n/a	n/a	n/a	n/a	n/a	3.0	n/a	n/a	n/a	n/a	n/a	n/a	n/a	n/a	n/a	n/a	n/a	n/a	n/a	n/a	n/a	n/a	n/a	n/a	n/a	n/a	0.0	0.0	0.0	2.0	10.0	0.0	10.0	0.0	n/a	n/a	n/a	n/a	n/a	n/a	n/a	n/a	0.0	0.0	0.0	0.0	n/a	n/a	n/a	n/a	n/a	n/a	n/a	n/a	n/a	n/a	n/a	n/a	n/a	n/a	n/a	n/a	n/a	n/a	n/a	n/a	n/a	n/a	n/a	n/a	n/a	n/a	619.4593011001125	619.4593011001125	2.0	0.9591592000797392	620.4415877000429	620.4415877000429	620.4415877000429	620.4415877000429	620.4415877000429	620.4415877000429	1.0	0.7636055001057684	n/a	n/a	n/a	n/a	n/a	n/a	n/a	n/a	n/a	n/a	n/a	n/a	n/a	n/a	n/a	n/a	n/a	n/a	n/a	n/a	n/a	n/a	n/a	n/a	n/a	n/a	n/a	n/a	n/a	n/a	n/a	n/a	n/a	n/a	n/a	n/a	n/a	n/a	n/a	n/a	n/a	n/a	n/a	n/a	n/a	n/a	n/a	n/a	n/a	n/a	n/a	n/a	n/a	n/a	n/a	n/a	n/a	n/a	n/a	n/a	n/a	n/a	n/a	n/a	n/a	n/a	45	1	2023-03-15_18h03.21.239	test_final	2022.2.4	60.08734306734811	n/a
n/a	n/a	n/a	n/a	n/a	3.0	n/a	n/a	n/a	n/a	n/a	n/a	n/a	n/a	n/a	n/a	n/a	n/a	n/a	n/a	n/a	n/a	n/a	n/a	n/a	n/a	0.0	0.0	0.0	2.0	10.0	0.0	10.0	0.0	n/a	n/a	n/a	n/a	n/a	n/a	n/a	n/a	n/a	n/a	n/a	n/a	n/a	n/a	n/a	n/a	n/a	n/a	n/a	n/a	n/a	n/a	n/a	n/a	n/a	n/a	n/a	n/a	n/a	n/a	n/a	n/a	n/a	n/a	n/a	n/a	n/a	n/a	n/a	n/a	n/a	n/a	n/a	n/a	n/a	n/a	n/a	n/a	n/a	n/a	621.2241029003635	n/a	n/a	n/a	n/a	n/a	n/a	n/a	n/a	n/a	n/a	n/a	n/a	n/a	n/a	n/a	n/a	n/a	n/a	n/a	n/a	n/a	n/a	n/a	n/a	n/a	n/a	n/a	n/a	n/a	n/a	n/a	n/a	n/a	n/a	n/a	n/a	n/a	n/a	n/a	n/a	n/a	n/a	n/a	n/a	n/a	n/a	n/a	n/a	n/a	n/a	n/a	n/a	n/a	n/a	n/a	n/a	n/a	n/a	n/a	n/a	n/a	n/a	n/a	n/a	n/a	45	1	2023-03-15_18h03.21.239	test_final	2022.2.4	60.08734306734811	n/a
n/a	utils/nb_masks/EmoScrambledFW_41M_AN_C.BMP	utils/nb_masks/EmoScrambledBW_41M_AN_C.BMP	n/a	n/a	3.0	n/a	n/a	n/a	n/a	n/a	n/a	n/a	n/a	n/a	n/a	n/a	n/a	n/a	n/a	n/a	n/a	n/a	n/a	n/a	n/a	0.0	0.0	0.0	2.0	11.0	0.0	11.0	0.0	0.0	0.0	0.0	0.0	n/a	n/a	n/a	n/a	n/a	n/a	n/a	n/a	n/a	n/a	n/a	n/a	n/a	n/a	n/a	n/a	n/a	n/a	n/a	n/a	n/a	623.2384907999076	625.3528689001687	2.1099999999999977	n/a	n/a	n/a	n/a	n/a	n/a	n/a	n/a	n/a	n/a	n/a	n/a	n/a	n/a	n/a	n/a	n/a	n/a	n/a	n/a	n/a	n/a	n/a	n/a	n/a	n/a	n/a	n/a	n/a	n/a	n/a	n/a	n/a	n/a	n/a	n/a	n/a	n/a	n/a	n/a	n/a	n/a	n/a	n/a	n/a	n/a	n/a	n/a	n/a	n/a	n/a	3.600027412176132e-06	utils/nb_masks/EmoScrambledFW_41M_AN_C.BMP	0.0995379998348653	6.0	3.899913281202316e-06	0.0322324000298976	utils/no_prime.png	3.3997930586338043e-06	utils/nb_masks/EmoScrambledBW_41M_AN_C.BMP	0.0331088001839816	4.400033503770828e-06	MR2_database/bf17.tif	0.0004481002688407	n/a	n/a	n/a	n/a	right	0.4977254997938871	626.0581714003347	627.0674451999366	n/a	n/a	n/a	n/a	n/a	n/a	n/a	n/a	n/a	n/a	n/a	n/a	n/a	n/a	n/a	n/a	45	1	2023-03-15_18h03.21.239	test_final	2022.2.4	60.08734306734811	n/a
