prac_prime	forward_mask	backward_mask	practice_part1	practice_part2	condition	practice_1.thisRepN	practice_1.thisTrialN	practice_1.thisN	practice_1.thisIndex	practice_2.thisRepN	practice_2.thisTrialN	practice_2.thisN	practice_2.thisIndex	fbLoop1.thisRepN	fbLoop1.thisTrialN	fbLoop1.thisN	fbLoop1.thisIndex	fbLoop2.thisRepN	fbLoop2.thisTrialN	fbLoop2.thisN	fbLoop2.thisIndex	skip_prac.thisRepN	skip_prac.thisTrialN	skip_prac.thisN	skip_prac.thisIndex	block_conditions.thisRepN	block_conditions.thisTrialN	block_conditions.thisN	block_conditions.thisIndex	blocks.thisRepN	blocks.thisTrialN	blocks.thisN	blocks.thisIndex	feedback_con1.thisRepN	feedback_con1.thisTrialN	feedback_con1.thisN	feedback_con1.thisIndex	feedback_con2.thisRepN	feedback_con2.thisTrialN	feedback_con2.thisN	feedback_con2.thisIndex	skip_questionnaire.thisRepN	skip_questionnaire.thisTrialN	skip_questionnaire.thisN	skip_questionnaire.thisIndex	loading_screen.started	loading_screen.stopped	welcome_text.started	welcome_resp.started	welcome_resp.keys	welcome_resp.rt	Task_instructions.started	instructions_resp.started	Fake_demo.started	left_arrow_demo.started	Real_demo.started	right_arrow_demo.started	instructions_resp.keys	instructions_resp.rt	fix_cross.started	fix_cross.stopped	fixation_duration	pratice_target1.started	practice_part1_resp.started	prac_LeftArrow.started	prac_RightArrow.started	prac_FakeLabel1.started	prac_RealLabel1.started	practice_part1_resp.keys	practice_part1_resp.rt	prac_fb.started	ISI_prac.started	confidence_resp.started	confidence_scale.started	confidence_resp.keys	confidence_resp.rt	stim_gender.started	attention_resp.started	male_button.started	female_button.started	male_label.started	female_label.started	attention_resp.keys	attention_resp.rt	prestim_text.started	Practice_instructions.started	key_resp.started	key_resp.keys	key_resp.rt	pract_fw.started	pract_fw.stopped	pract_prime.started	pract_prime.stopped	pract_bm.started	pract_bm.stopped	pract_target2.started	prac_resp2.started	prac_LeftArrow_2.started	prac_RightArrow_2.started	prac_FakeLabel1_2.started	prac_RealLabel1_2.started	prac_resp2.keys	prac_fb3.started	prac_fb_resp.started	prac_fb_resp.keys	prac_fb_resp.rt	prac_resp2.rt	prac_fb2.started	prac_fb2.stopped	begin_expt.started	begin_expt.keys	begin_expt.rt	forward_mask.started	forward_mask.1	forward_mask.stopped	forward_mask_duration.frames	prime.started	prime.stopped	prime	backward_mask.started	backward_mask.1	backward_mask.stopped	target.started	target	target.stopped	rt_fb_2.started	feedback_resp.started	feedback_resp.keys	feedback_resp.rt	realness_response	realness_rt	rt_fb.started	rt_fb.stopped	break_text.started	break_resp.started	break_resp.keys	break_resp.rt	familiarity_scale.started	familiarity_resp.started	familiarity_resp.keys	familiarity_resp.rt	PAS_question.started	PAS_response.started	PAS_response.keys	PAS_response.rt	end_experiment.started	end_key.started	end_key.keys	end_key.rt	participant	session	date	expName	psychopyVersion	frameRate	Unnamed: 156
n/a	n/a	n/a	n/a	n/a	n/a	n/a	n/a	n/a	n/a	n/a	n/a	n/a	n/a	n/a	n/a	n/a	n/a	n/a	n/a	n/a	n/a	n/a	n/a	n/a	n/a	n/a	n/a	n/a	n/a	n/a	n/a	n/a	n/a	n/a	n/a	n/a	n/a	n/a	n/a	n/a	n/a	n/a	n/a	n/a	n/a	18.45532880001701	107.78574520000257	107.78574520000257	107.78574520000257	space	6.783756099990569	n/a	n/a	n/a	n/a	n/a	n/a	n/a	n/a	n/a	n/a	n/a	n/a	n/a	n/a	n/a	n/a	n/a	n/a	n/a	n/a	n/a	n/a	n/a	n/a	n/a	n/a	n/a	n/a	n/a	n/a	n/a	n/a	n/a	n/a	n/a	n/a	n/a	n/a	n/a	n/a	n/a	n/a	n/a	n/a	n/a	n/a	n/a	n/a	n/a	n/a	n/a	n/a	n/a	n/a	n/a	n/a	n/a	n/a	n/a	n/a	n/a	n/a	n/a	n/a	n/a	n/a	n/a	n/a	n/a	n/a	n/a	n/a	n/a	n/a	n/a	n/a	n/a	n/a	n/a	n/a	n/a	n/a	n/a	n/a	n/a	n/a	n/a	n/a	n/a	n/a	n/a	n/a	n/a	n/a	n/a	n/a	n/a	n/a	23	1	2023-02-23_15h49.35.893	test_final	2022.2.4	60.12773537469888	n/a
n/a	n/a	n/a	n/a	n/a	n/a	n/a	n/a	n/a	n/a	n/a	n/a	n/a	n/a	n/a	n/a	n/a	n/a	n/a	n/a	n/a	n/a	n/a	n/a	n/a	n/a	n/a	n/a	n/a	n/a	n/a	n/a	n/a	n/a	n/a	n/a	n/a	n/a	n/a	n/a	n/a	n/a	n/a	n/a	n/a	n/a	n/a	n/a	n/a	n/a	n/a	n/a	114.5987710999907	114.5987710999907	114.5987710999907	114.5987710999907	114.5987710999907	114.5987710999907	space	6.75669900001958	n/a	n/a	n/a	n/a	n/a	n/a	n/a	n/a	n/a	n/a	n/a	n/a	n/a	n/a	n/a	n/a	n/a	n/a	n/a	n/a	n/a	n/a	n/a	n/a	n/a	n/a	n/a	n/a	n/a	n/a	n/a	n/a	n/a	n/a	n/a	n/a	n/a	n/a	n/a	n/a	n/a	n/a	n/a	n/a	n/a	n/a	n/a	n/a	n/a	n/a	n/a	n/a	n/a	n/a	n/a	n/a	n/a	n/a	n/a	n/a	n/a	n/a	n/a	n/a	n/a	n/a	n/a	n/a	n/a	n/a	n/a	n/a	n/a	n/a	n/a	n/a	n/a	n/a	n/a	n/a	n/a	n/a	n/a	n/a	n/a	n/a	n/a	n/a	n/a	n/a	23	1	2023-02-23_15h49.35.893	test_final	2022.2.4	60.12773537469888	n/a
NimStim_Database/Images/15F_NE_O.BMP	utils/practice/ScrambledFW_08F_NE_O.BMP	utils/practice/ScrambledBW_08F_NE_O.BMP	utils/practice/real_prac4.jpg	utils/practice/fake_prac12.jpg	n/a	0.0	0.0	0.0	3.0	n/a	n/a	n/a	n/a	n/a	n/a	n/a	n/a	n/a	n/a	n/a	n/a	n/a	n/a	n/a	n/a	n/a	n/a	n/a	n/a	n/a	n/a	n/a	n/a	n/a	n/a	n/a	n/a	n/a	n/a	n/a	n/a	n/a	n/a	n/a	n/a	n/a	n/a	n/a	n/a	n/a	n/a	n/a	n/a	n/a	n/a	n/a	n/a	n/a	n/a	121.38592900004004	123.57024000003004	2.129999999999997	123.57024000003004	123.57024000003004	123.57024000003004	123.57024000003004	123.57024000003004	123.57024000003004	right	3.4154729999718256	127.00803979998454	0.0099622999550774	129.02186099998653	129.02186099998653	4.0	3.2744317000033334	132.31819530000212	132.31819530000212	132.31819530000212	132.31819530000212	132.31819530000212	132.31819530000212	4.0	1.2558500999584794	133.59976690000622	n/a	n/a	n/a	n/a	n/a	n/a	n/a	n/a	n/a	n/a	n/a	n/a	n/a	n/a	n/a	n/a	n/a	n/a	n/a	n/a	n/a	n/a	n/a	n/a	n/a	n/a	n/a	n/a	utils/practice/ScrambledFW_08F_NE_O.BMP	n/a	n/a	n/a	n/a	n/a	n/a	utils/practice/ScrambledBW_08F_NE_O.BMP	n/a	n/a	n/a	n/a	n/a	n/a	n/a	n/a	n/a	n/a	n/a	n/a	n/a	n/a	n/a	n/a	n/a	n/a	n/a	n/a	n/a	n/a	n/a	n/a	n/a	n/a	n/a	n/a	23	1	2023-02-23_15h49.35.893	test_final	2022.2.4	60.12773537469888	n/a
NimStim_Database/Images/16F_NE_O.BMP	utils/practice/ScrambledFW_16F_NE_O.BMP	utils/practice/ScrambledBW_16F_NE_O.BMP	utils/practice/fake_prac6.jpg	utils/practice/fake_prac15.jpg	n/a	0.0	1.0	1.0	7.0	n/a	n/a	n/a	n/a	n/a	n/a	n/a	n/a	n/a	n/a	n/a	n/a	n/a	n/a	n/a	n/a	n/a	n/a	n/a	n/a	n/a	n/a	n/a	n/a	n/a	n/a	n/a	n/a	n/a	n/a	n/a	n/a	n/a	n/a	n/a	n/a	n/a	n/a	n/a	n/a	n/a	n/a	n/a	n/a	n/a	n/a	n/a	n/a	n/a	n/a	135.61461709998548	137.730045000033	2.0799999999999983	137.730045000033	137.730045000033	137.730045000033	137.730045000033	137.730045000033	137.730045000033	left	1.9164316999958828	139.67726600001333	0.0107609000406228	141.69101180002326	141.69101180002326	4.0	1.026496300008148	142.73994810000295	142.73994810000295	142.73994810000295	142.73994810000295	142.73994810000295	142.73994810000295	1.0	3.4227609999943525	146.18629500002135	n/a	n/a	n/a	n/a	n/a	n/a	n/a	n/a	n/a	n/a	n/a	n/a	n/a	n/a	n/a	n/a	n/a	n/a	n/a	n/a	n/a	n/a	n/a	n/a	n/a	n/a	n/a	n/a	utils/practice/ScrambledFW_16F_NE_O.BMP	n/a	n/a	n/a	n/a	n/a	n/a	utils/practice/ScrambledBW_16F_NE_O.BMP	n/a	n/a	n/a	n/a	n/a	n/a	n/a	n/a	n/a	n/a	n/a	n/a	n/a	n/a	n/a	n/a	n/a	n/a	n/a	n/a	n/a	n/a	n/a	n/a	n/a	n/a	n/a	n/a	23	1	2023-02-23_15h49.35.893	test_final	2022.2.4	60.12773537469888	n/a
NimStim_Database/Images/03F_NE_O.BMP	utils/practice/ScrambledFW_23M_NE_C.BMP	utils/practice/ScrambledBW_23M_NE_C.BMP	utils/practice/fake_prac7.jpg	utils/practice/real_prac6.jpg	n/a	0.0	2.0	2.0	8.0	n/a	n/a	n/a	n/a	n/a	n/a	n/a	n/a	n/a	n/a	n/a	n/a	n/a	n/a	n/a	n/a	n/a	n/a	n/a	n/a	n/a	n/a	n/a	n/a	n/a	n/a	n/a	n/a	n/a	n/a	n/a	n/a	n/a	n/a	n/a	n/a	n/a	n/a	n/a	n/a	n/a	n/a	n/a	n/a	n/a	n/a	n/a	n/a	n/a	n/a	148.20034250000026	150.6834753000294	2.4399999999999906	150.6834753000294	150.6834753000294	150.6834753000294	150.6834753000294	150.6834753000294	150.6834753000294	right	0.9370605000294744	151.64673750003567	0.0031394999823533	153.66126580000855	153.66126580000855	4.0	1.030417200003285	154.7099626000272	154.7099626000272	154.7099626000272	154.7099626000272	154.7099626000272	154.7099626000272	4.0	0.9639522000215948	155.69264900003327	n/a	n/a	n/a	n/a	n/a	n/a	n/a	n/a	n/a	n/a	n/a	n/a	n/a	n/a	n/a	n/a	n/a	n/a	n/a	n/a	n/a	n/a	n/a	n/a	n/a	n/a	n/a	n/a	utils/practice/ScrambledFW_23M_NE_C.BMP	n/a	n/a	n/a	n/a	n/a	n/a	utils/practice/ScrambledBW_23M_NE_C.BMP	n/a	n/a	n/a	n/a	n/a	n/a	n/a	n/a	n/a	n/a	n/a	n/a	n/a	n/a	n/a	n/a	n/a	n/a	n/a	n/a	n/a	n/a	n/a	n/a	n/a	n/a	n/a	n/a	23	1	2023-02-23_15h49.35.893	test_final	2022.2.4	60.12773537469888	n/a
NimStim_Database/Images/43M_NE_O.BMP	utils/practice/ScrambledFW_11F_NE_C.BMP	utils/practice/ScrambledBW_11F_NE_C.BMP	utils/practice/real_prac11.jpg	utils/practice/fake_prac11.jpg	n/a	0.0	3.0	3.0	4.0	n/a	n/a	n/a	n/a	n/a	n/a	n/a	n/a	n/a	n/a	n/a	n/a	n/a	n/a	n/a	n/a	n/a	n/a	n/a	n/a	n/a	n/a	n/a	n/a	n/a	n/a	n/a	n/a	n/a	n/a	n/a	n/a	n/a	n/a	n/a	n/a	n/a	n/a	n/a	n/a	n/a	n/a	n/a	n/a	n/a	n/a	n/a	n/a	n/a	n/a	157.70674860000145	159.78475980000803	2.039999999999999	159.78475980000803	159.78475980000803	159.78475980000803	159.78475980000803	159.78475980000803	159.78475980000803	right	1.546959200000856	161.35273809998762	0.0039187999791465	163.36694400000852	163.36694400000852	4.0	0.6287324000149965	164.01614249998238	164.01614249998238	164.01614249998238	164.01614249998238	164.01614249998238	164.01614249998238	1.0	0.5965160999912769	164.63232670002617	n/a	n/a	n/a	n/a	n/a	n/a	n/a	n/a	n/a	n/a	n/a	n/a	n/a	n/a	n/a	n/a	n/a	n/a	n/a	n/a	n/a	n/a	n/a	n/a	n/a	n/a	n/a	n/a	utils/practice/ScrambledFW_11F_NE_C.BMP	n/a	n/a	n/a	n/a	n/a	n/a	utils/practice/ScrambledBW_11F_NE_C.BMP	n/a	n/a	n/a	n/a	n/a	n/a	n/a	n/a	n/a	n/a	n/a	n/a	n/a	n/a	n/a	n/a	n/a	n/a	n/a	n/a	n/a	n/a	n/a	n/a	n/a	n/a	n/a	n/a	23	1	2023-02-23_15h49.35.893	test_final	2022.2.4	60.12773537469888	n/a
NimStim_Database/Images/12F_NE_C.BMP	utils/practice/ScrambledFW_03F_NE_O.BMP	utils/practice/ScrambledBW_03F_NE_O.BMP	utils/practice/real_prac9.jpg	utils/practice/real_prac13.jpg	n/a	0.0	4.0	4.0	1.0	n/a	n/a	n/a	n/a	n/a	n/a	n/a	n/a	n/a	n/a	n/a	n/a	n/a	n/a	n/a	n/a	n/a	n/a	n/a	n/a	n/a	n/a	n/a	n/a	n/a	n/a	n/a	n/a	n/a	n/a	n/a	n/a	n/a	n/a	n/a	n/a	n/a	n/a	n/a	n/a	n/a	n/a	n/a	n/a	n/a	n/a	n/a	n/a	n/a	n/a	166.6468885000213	169.0899861000362	2.4099999999999917	169.0899861000362	169.0899861000362	169.0899861000362	169.0899861000362	169.0899861000362	169.0899861000362	right	1.187193299992941	170.30974810000043	0.0024741000379435	172.32407740002964	172.32407740002964	4.0	1.39288379997015	173.7393730999902	173.7393730999902	173.7393730999902	173.7393730999902	173.7393730999902	173.7393730999902	1.0	1.126224200008437	174.88816410000436	n/a	n/a	n/a	n/a	n/a	n/a	n/a	n/a	n/a	n/a	n/a	n/a	n/a	n/a	n/a	n/a	n/a	n/a	n/a	n/a	n/a	n/a	n/a	n/a	n/a	n/a	n/a	n/a	utils/practice/ScrambledFW_03F_NE_O.BMP	n/a	n/a	n/a	n/a	n/a	n/a	utils/practice/ScrambledBW_03F_NE_O.BMP	n/a	n/a	n/a	n/a	n/a	n/a	n/a	n/a	n/a	n/a	n/a	n/a	n/a	n/a	n/a	n/a	n/a	n/a	n/a	n/a	n/a	n/a	n/a	n/a	n/a	n/a	n/a	n/a	23	1	2023-02-23_15h49.35.893	test_final	2022.2.4	60.12773537469888	n/a
NimStim_Database/Images/11F_NE_C.BMP	utils/practice/ScrambledFW_37M_NE_C.BMP	utils/practice/ScrambledBW_37M_NE_C.BMP	utils/practice/real_prac16.jpg	utils/practice/fake_prac1.jpg	n/a	0.0	5.0	5.0	14.0	n/a	n/a	n/a	n/a	n/a	n/a	n/a	n/a	n/a	n/a	n/a	n/a	n/a	n/a	n/a	n/a	n/a	n/a	n/a	n/a	n/a	n/a	n/a	n/a	n/a	n/a	n/a	n/a	n/a	n/a	n/a	n/a	n/a	n/a	n/a	n/a	n/a	n/a	n/a	n/a	n/a	n/a	n/a	n/a	n/a	n/a	n/a	n/a	n/a	n/a	176.9025668000104	179.18767529999604	2.239999999999995	179.18767529999604	179.18767529999604	179.18767529999604	179.18767529999604	179.18767529999604	179.18767529999604	right	1.4457873000064865	180.6651162999915	0.0025187999708577	182.67948560003424	182.67948560003424	4.0	0.7558415000094101	183.46188800001983	183.46188800001983	183.46188800001983	183.46188800001983	183.46188800001983	183.46188800001983	1.0	0.3912847000174224	183.87833069998305	n/a	n/a	n/a	n/a	n/a	n/a	n/a	n/a	n/a	n/a	n/a	n/a	n/a	n/a	n/a	n/a	n/a	n/a	n/a	n/a	n/a	n/a	n/a	n/a	n/a	n/a	n/a	n/a	utils/practice/ScrambledFW_37M_NE_C.BMP	n/a	n/a	n/a	n/a	n/a	n/a	utils/practice/ScrambledBW_37M_NE_C.BMP	n/a	n/a	n/a	n/a	n/a	n/a	n/a	n/a	n/a	n/a	n/a	n/a	n/a	n/a	n/a	n/a	n/a	n/a	n/a	n/a	n/a	n/a	n/a	n/a	n/a	n/a	n/a	n/a	23	1	2023-02-23_15h49.35.893	test_final	2022.2.4	60.12773537469888	n/a
NimStim_Database/Images/37M_NE_C.BMP	utils/practice/ScrambledFW_24M_NE_C.BMP	utils/practice/ScrambledBW_24M_NE_C.BMP	utils/practice/real_prac7.jpg	utils/practice/real_prac14.jpg	n/a	0.0	6.0	6.0	9.0	n/a	n/a	n/a	n/a	n/a	n/a	n/a	n/a	n/a	n/a	n/a	n/a	n/a	n/a	n/a	n/a	n/a	n/a	n/a	n/a	n/a	n/a	n/a	n/a	n/a	n/a	n/a	n/a	n/a	n/a	n/a	n/a	n/a	n/a	n/a	n/a	n/a	n/a	n/a	n/a	n/a	n/a	n/a	n/a	n/a	n/a	n/a	n/a	n/a	n/a	185.8924850000185	188.2763743000105	2.3399999999999928	188.2763743000105	188.2763743000105	188.2763743000105	188.2763743000105	188.2763743000105	188.2763743000105	right	1.1478132999618538	189.4552255999879	0.002384899999015	191.4699178999872	191.4699178999872	4.0	0.6273937000078149	192.11922090000007	192.11922090000007	192.11922090000007	192.11922090000007	192.11922090000007	192.11922090000007	4.0	0.7635633000172675	192.90159960003805	n/a	n/a	n/a	n/a	n/a	n/a	n/a	n/a	n/a	n/a	n/a	n/a	n/a	n/a	n/a	n/a	n/a	n/a	n/a	n/a	n/a	n/a	n/a	n/a	n/a	n/a	n/a	n/a	utils/practice/ScrambledFW_24M_NE_C.BMP	n/a	n/a	n/a	n/a	n/a	n/a	utils/practice/ScrambledBW_24M_NE_C.BMP	n/a	n/a	n/a	n/a	n/a	n/a	n/a	n/a	n/a	n/a	n/a	n/a	n/a	n/a	n/a	n/a	n/a	n/a	n/a	n/a	n/a	n/a	n/a	n/a	n/a	n/a	n/a	n/a	23	1	2023-02-23_15h49.35.893	test_final	2022.2.4	60.12773537469888	n/a
NimStim_Database/Images/01F_NE_O.BMP	utils/practice/ScrambledFW_28M_NE_O.BMP	utils/practice/ScrambledBW_28M_NE_O.BMP	utils/practice/fake_prac14.jpg	utils/practice/fake_prac8.jpg	n/a	0.0	7.0	7.0	12.0	n/a	n/a	n/a	n/a	n/a	n/a	n/a	n/a	n/a	n/a	n/a	n/a	n/a	n/a	n/a	n/a	n/a	n/a	n/a	n/a	n/a	n/a	n/a	n/a	n/a	n/a	n/a	n/a	n/a	n/a	n/a	n/a	n/a	n/a	n/a	n/a	n/a	n/a	n/a	n/a	n/a	n/a	n/a	n/a	n/a	n/a	n/a	n/a	n/a	n/a	194.91608689998972	197.30938200000676	2.3499999999999925	197.30938200000676	197.30938200000676	197.30938200000676	197.30938200000676	197.30938200000676	197.30938200000676	left	4.345618900028057	201.67511830001604	0.0028173999744467	203.68971250002505	203.68971250002505	4.0	1.0587467000004835	204.7714629000402	204.7714629000402	204.7714629000402	204.7714629000402	204.7714629000402	204.7714629000402	4.0	0.9327812999836168	205.72069370001557	n/a	n/a	n/a	n/a	n/a	n/a	n/a	n/a	n/a	n/a	n/a	n/a	n/a	n/a	n/a	n/a	n/a	n/a	n/a	n/a	n/a	n/a	n/a	n/a	n/a	n/a	n/a	n/a	utils/practice/ScrambledFW_28M_NE_O.BMP	n/a	n/a	n/a	n/a	n/a	n/a	utils/practice/ScrambledBW_28M_NE_O.BMP	n/a	n/a	n/a	n/a	n/a	n/a	n/a	n/a	n/a	n/a	n/a	n/a	n/a	n/a	n/a	n/a	n/a	n/a	n/a	n/a	n/a	n/a	n/a	n/a	n/a	n/a	n/a	n/a	23	1	2023-02-23_15h49.35.893	test_final	2022.2.4	60.12773537469888	n/a
NimStim_Database/Images/25M_NE_C.BMP	utils/practice/ScrambledFW_01F_NE_O.BMP	utils/practice/ScrambledBW_01F_NE_O.BMP	utils/practice/real_prac1.jpg	utils/practice/real_prac10.jpg	n/a	0.0	8.0	8.0	0.0	n/a	n/a	n/a	n/a	n/a	n/a	n/a	n/a	n/a	n/a	n/a	n/a	n/a	n/a	n/a	n/a	n/a	n/a	n/a	n/a	n/a	n/a	n/a	n/a	n/a	n/a	n/a	n/a	n/a	n/a	n/a	n/a	n/a	n/a	n/a	n/a	n/a	n/a	n/a	n/a	n/a	n/a	n/a	n/a	n/a	n/a	n/a	n/a	n/a	n/a	207.73514430003704	210.11731990001863	2.3399999999999928	210.11731990001863	210.11731990001863	210.11731990001863	210.11731990001863	210.11731990001863	210.11731990001863	right	1.015633600007277	211.1648728	0.0022587000275962	213.17916609998792	213.17916609998792	4.0	1.57779730000766	214.777671399992	214.777671399992	214.777671399992	214.777671399992	214.777671399992	214.777671399992	4.0	0.5334532000124454	215.3435285000014	n/a	n/a	n/a	n/a	n/a	n/a	n/a	n/a	n/a	n/a	n/a	n/a	n/a	n/a	n/a	n/a	n/a	n/a	n/a	n/a	n/a	n/a	n/a	n/a	n/a	n/a	n/a	n/a	utils/practice/ScrambledFW_01F_NE_O.BMP	n/a	n/a	n/a	n/a	n/a	n/a	utils/practice/ScrambledBW_01F_NE_O.BMP	n/a	n/a	n/a	n/a	n/a	n/a	n/a	n/a	n/a	n/a	n/a	n/a	n/a	n/a	n/a	n/a	n/a	n/a	n/a	n/a	n/a	n/a	n/a	n/a	n/a	n/a	n/a	n/a	23	1	2023-02-23_15h49.35.893	test_final	2022.2.4	60.12773537469888	n/a
NimStim_Database/Images/24M_NE_C.BMP	utils/practice/ScrambledFW_43M_NE_O.BMP	utils/practice/ScrambledBW_43M_NE_O.BMP	utils/practice/fake_prac13.jpg	utils/practice/real_prac12.jpg	n/a	0.0	9.0	9.0	15.0	n/a	n/a	n/a	n/a	n/a	n/a	n/a	n/a	n/a	n/a	n/a	n/a	n/a	n/a	n/a	n/a	n/a	n/a	n/a	n/a	n/a	n/a	n/a	n/a	n/a	n/a	n/a	n/a	n/a	n/a	n/a	n/a	n/a	n/a	n/a	n/a	n/a	n/a	n/a	n/a	n/a	n/a	n/a	n/a	n/a	n/a	n/a	n/a	n/a	n/a	217.3581308000139	219.55923840001924	2.149999999999997	219.55923840001924	219.55923840001924	219.55923840001924	219.55923840001924	219.55923840001924	219.55923840001924	left	3.1885229999898	222.7687395000248	0.0022621999960392	224.78323510003972	224.78323510003972	4.0	1.0621115999529138	225.86538380000275	225.86538380000275	225.86538380000275	225.86538380000275	225.86538380000275	225.86538380000275	1.0	1.072014499979559	226.96396160003496	n/a	n/a	n/a	n/a	n/a	n/a	n/a	n/a	n/a	n/a	n/a	n/a	n/a	n/a	n/a	n/a	n/a	n/a	n/a	n/a	n/a	n/a	n/a	n/a	n/a	n/a	n/a	n/a	utils/practice/ScrambledFW_43M_NE_O.BMP	n/a	n/a	n/a	n/a	n/a	n/a	utils/practice/ScrambledBW_43M_NE_O.BMP	n/a	n/a	n/a	n/a	n/a	n/a	n/a	n/a	n/a	n/a	n/a	n/a	n/a	n/a	n/a	n/a	n/a	n/a	n/a	n/a	n/a	n/a	n/a	n/a	n/a	n/a	n/a	n/a	23	1	2023-02-23_15h49.35.893	test_final	2022.2.4	60.12773537469888	n/a
NimStim_Database/Images/28M_NE_O.BMP	utils/practice/ScrambledFW_12F_NE_C.BMP	utils/practice/ScrambledBW_12F_NE_C.BMP	utils/practice/fake_prac3.jpg	utils/practice/fake_prac10.jpg	n/a	0.0	10.0	10.0	5.0	n/a	n/a	n/a	n/a	n/a	n/a	n/a	n/a	n/a	n/a	n/a	n/a	n/a	n/a	n/a	n/a	n/a	n/a	n/a	n/a	n/a	n/a	n/a	n/a	n/a	n/a	n/a	n/a	n/a	n/a	n/a	n/a	n/a	n/a	n/a	n/a	n/a	n/a	n/a	n/a	n/a	n/a	n/a	n/a	n/a	n/a	n/a	n/a	n/a	n/a	228.97857040003876	231.4802343000192	2.45999999999999	231.4802343000192	231.4802343000192	231.4802343000192	231.4802343000192	231.4802343000192	231.4802343000192	left	0.9781124000437558	232.4748601000174	0.0042166999774053	234.48906550003449	234.48906550003449	4.0	0.8294944999506697	235.33832750003785	235.33832750003785	235.33832750003785	235.33832750003785	235.33832750003785	235.33832750003785	4.0	1.0143679000320844	236.37060570000904	n/a	n/a	n/a	n/a	n/a	n/a	n/a	n/a	n/a	n/a	n/a	n/a	n/a	n/a	n/a	n/a	n/a	n/a	n/a	n/a	n/a	n/a	n/a	n/a	n/a	n/a	n/a	n/a	utils/practice/ScrambledFW_12F_NE_C.BMP	n/a	n/a	n/a	n/a	n/a	n/a	utils/practice/ScrambledBW_12F_NE_C.BMP	n/a	n/a	n/a	n/a	n/a	n/a	n/a	n/a	n/a	n/a	n/a	n/a	n/a	n/a	n/a	n/a	n/a	n/a	n/a	n/a	n/a	n/a	n/a	n/a	n/a	n/a	n/a	n/a	23	1	2023-02-23_15h49.35.893	test_final	2022.2.4	60.12773537469888	n/a
NimStim_Database/Images/06F_NE_O.BMP	utils/practice/ScrambledFW_06F_NE_O.BMP	utils/practice/ScrambledBW_06F_NE_O.BMP	utils/practice/fake_prac2.jpg	utils/practice/real_prac15.jpg	n/a	0.0	11.0	11.0	2.0	n/a	n/a	n/a	n/a	n/a	n/a	n/a	n/a	n/a	n/a	n/a	n/a	n/a	n/a	n/a	n/a	n/a	n/a	n/a	n/a	n/a	n/a	n/a	n/a	n/a	n/a	n/a	n/a	n/a	n/a	n/a	n/a	n/a	n/a	n/a	n/a	n/a	n/a	n/a	n/a	n/a	n/a	n/a	n/a	n/a	n/a	n/a	n/a	n/a	n/a	238.3850878000376	240.60061910003424	2.179999999999996	240.60061910003424	240.60061910003424	240.60061910003424	240.60061910003424	240.60061910003424	240.60061910003424	left	1.0332525999983773	241.6646524000098	0.0025140000507235	243.67908510001143	243.67908510001143	4.0	0.6560706999734975	244.3617272999836	244.3617272999836	244.3617272999836	244.3617272999836	244.3617272999836	244.3617272999836	4.0	0.2750106999883428	244.66115140001057	n/a	n/a	n/a	n/a	n/a	n/a	n/a	n/a	n/a	n/a	n/a	n/a	n/a	n/a	n/a	n/a	n/a	n/a	n/a	n/a	n/a	n/a	n/a	n/a	n/a	n/a	n/a	n/a	utils/practice/ScrambledFW_06F_NE_O.BMP	n/a	n/a	n/a	n/a	n/a	n/a	utils/practice/ScrambledBW_06F_NE_O.BMP	n/a	n/a	n/a	n/a	n/a	n/a	n/a	n/a	n/a	n/a	n/a	n/a	n/a	n/a	n/a	n/a	n/a	n/a	n/a	n/a	n/a	n/a	n/a	n/a	n/a	n/a	n/a	n/a	23	1	2023-02-23_15h49.35.893	test_final	2022.2.4	60.12773537469888	n/a
NimStim_Database/Images/28M_NE_C.BMP	utils/practice/ScrambledFW_33M_NE_C.BMP	utils/practice/ScrambledBW_33M_NE_C.BMP	utils/practice/real_prac2.jpg	utils/practice/fake_prac16.jpg	n/a	0.0	12.0	12.0	13.0	n/a	n/a	n/a	n/a	n/a	n/a	n/a	n/a	n/a	n/a	n/a	n/a	n/a	n/a	n/a	n/a	n/a	n/a	n/a	n/a	n/a	n/a	n/a	n/a	n/a	n/a	n/a	n/a	n/a	n/a	n/a	n/a	n/a	n/a	n/a	n/a	n/a	n/a	n/a	n/a	n/a	n/a	n/a	n/a	n/a	n/a	n/a	n/a	n/a	n/a	246.6756500999909	248.9861191000091	2.2699999999999942	248.9861191000091	248.9861191000091	248.9861191000091	248.9861191000091	248.9861191000091	248.9861191000091	left	2.277191100001801	251.28750430000943	0.0027612000121735	253.30197440000484	253.30197440000484	4.0	0.3508753000060096	253.68483450001804	253.68483450001804	253.68483450001804	253.68483450001804	253.68483450001804	253.68483450001804	1.0	0.2176119999494403	253.9344540000311	n/a	n/a	n/a	n/a	n/a	n/a	n/a	n/a	n/a	n/a	n/a	n/a	n/a	n/a	n/a	n/a	n/a	n/a	n/a	n/a	n/a	n/a	n/a	n/a	n/a	n/a	n/a	n/a	utils/practice/ScrambledFW_33M_NE_C.BMP	n/a	n/a	n/a	n/a	n/a	n/a	utils/practice/ScrambledBW_33M_NE_C.BMP	n/a	n/a	n/a	n/a	n/a	n/a	n/a	n/a	n/a	n/a	n/a	n/a	n/a	n/a	n/a	n/a	n/a	n/a	n/a	n/a	n/a	n/a	n/a	n/a	n/a	n/a	n/a	n/a	23	1	2023-02-23_15h49.35.893	test_final	2022.2.4	60.12773537469888	n/a
NimStim_Database/Images/08F_NE_O.BMP	utils/practice/ScrambledFW_15F_NE_O.BMP	utils/practice/ScrambledBW_15F_NE_O.BMP	utils/practice/fake_prac9.jpg	utils/practice/real_prac5.jpg	n/a	0.0	13.0	13.0	6.0	n/a	n/a	n/a	n/a	n/a	n/a	n/a	n/a	n/a	n/a	n/a	n/a	n/a	n/a	n/a	n/a	n/a	n/a	n/a	n/a	n/a	n/a	n/a	n/a	n/a	n/a	n/a	n/a	n/a	n/a	n/a	n/a	n/a	n/a	n/a	n/a	n/a	n/a	n/a	n/a	n/a	n/a	n/a	n/a	n/a	n/a	n/a	n/a	n/a	n/a	255.9490431000013	258.09943360002944	2.1099999999999977	258.09943360002944	258.09943360002944	258.09943360002944	258.09943360002944	258.09943360002944	258.09943360002944	right	1.2780980999814346	259.3950169000309	0.0022910000407136	261.4097780000302	261.4097780000302	4.0	0.4833111999905668	261.9257513000048	261.9257513000048	261.9257513000048	261.9257513000048	261.9257513000048	261.9257513000048	4.0	0.172875499993097	262.12529350002296	n/a	n/a	n/a	n/a	n/a	n/a	n/a	n/a	n/a	n/a	n/a	n/a	n/a	n/a	n/a	n/a	n/a	n/a	n/a	n/a	n/a	n/a	n/a	n/a	n/a	n/a	n/a	n/a	utils/practice/ScrambledFW_15F_NE_O.BMP	n/a	n/a	n/a	n/a	n/a	n/a	utils/practice/ScrambledBW_15F_NE_O.BMP	n/a	n/a	n/a	n/a	n/a	n/a	n/a	n/a	n/a	n/a	n/a	n/a	n/a	n/a	n/a	n/a	n/a	n/a	n/a	n/a	n/a	n/a	n/a	n/a	n/a	n/a	n/a	n/a	23	1	2023-02-23_15h49.35.893	test_final	2022.2.4	60.12773537469888	n/a
NimStim_Database/Images/33M_NE_C.BMP	utils/practice/ScrambledFW_25M_NE_C.BMP	utils/practice/ScrambledBW_25M_NE_C.BMP	utils/practice/fake_prac4.jpg	utils/practice/fake_prac5.jpg	n/a	0.0	14.0	14.0	10.0	n/a	n/a	n/a	n/a	n/a	n/a	n/a	n/a	n/a	n/a	n/a	n/a	n/a	n/a	n/a	n/a	n/a	n/a	n/a	n/a	n/a	n/a	n/a	n/a	n/a	n/a	n/a	n/a	n/a	n/a	n/a	n/a	n/a	n/a	n/a	n/a	n/a	n/a	n/a	n/a	n/a	n/a	n/a	n/a	n/a	n/a	n/a	n/a	n/a	n/a	264.1397800000268	266.35102709999774	2.179999999999996	266.35102709999774	266.35102709999774	266.35102709999774	266.35102709999774	266.35102709999774	266.35102709999774	right	2.5395356999943037	268.9180703000165	0.0025471000117249	270.93247230001725	270.93247230001725	4.0	0.5144015999976546	271.4651867999928	271.4651867999928	271.4651867999928	271.4651867999928	271.4651867999928	271.4651867999928	4.0	0.205380100000184	271.69816969998647	n/a	n/a	n/a	n/a	n/a	n/a	n/a	n/a	n/a	n/a	n/a	n/a	n/a	n/a	n/a	n/a	n/a	n/a	n/a	n/a	n/a	n/a	n/a	n/a	n/a	n/a	n/a	n/a	utils/practice/ScrambledFW_25M_NE_C.BMP	n/a	n/a	n/a	n/a	n/a	n/a	utils/practice/ScrambledBW_25M_NE_C.BMP	n/a	n/a	n/a	n/a	n/a	n/a	n/a	n/a	n/a	n/a	n/a	n/a	n/a	n/a	n/a	n/a	n/a	n/a	n/a	n/a	n/a	n/a	n/a	n/a	n/a	n/a	n/a	n/a	23	1	2023-02-23_15h49.35.893	test_final	2022.2.4	60.12773537469888	n/a
NimStim_Database/Images/23M_NE_C.BMP	utils/practice/ScrambledFW_28M_NE_C.BMP	utils/practice/ScrambledBW_28M_NE_C.BMP	utils/practice/real_prac8.jpg	utils/practice/real_prac3.jpg	n/a	0.0	15.0	15.0	11.0	n/a	n/a	n/a	n/a	n/a	n/a	n/a	n/a	n/a	n/a	n/a	n/a	n/a	n/a	n/a	n/a	n/a	n/a	n/a	n/a	n/a	n/a	n/a	n/a	n/a	n/a	n/a	n/a	n/a	n/a	n/a	n/a	n/a	n/a	n/a	n/a	n/a	n/a	n/a	n/a	n/a	n/a	n/a	n/a	n/a	n/a	n/a	n/a	n/a	n/a	273.71276219998254	276.0647279000259	2.3099999999999934	276.0647279000259	276.0647279000259	276.0647279000259	276.0647279000259	276.0647279000259	276.0647279000259	right	1.8051645000232384	277.8914959999965	0.0023208999773487	279.90595290000783	279.90595290000783	4.0	0.4163510000216774	280.3386651999899	280.3386651999899	280.3386651999899	280.3386651999899	280.3386651999899	280.3386651999899	4.0	0.2278705000062473	280.5886371000088	n/a	n/a	n/a	n/a	n/a	n/a	n/a	n/a	n/a	n/a	n/a	n/a	n/a	n/a	n/a	n/a	n/a	n/a	n/a	n/a	n/a	n/a	n/a	n/a	n/a	n/a	n/a	n/a	utils/practice/ScrambledFW_28M_NE_C.BMP	n/a	n/a	n/a	n/a	n/a	n/a	utils/practice/ScrambledBW_28M_NE_C.BMP	n/a	n/a	n/a	n/a	n/a	n/a	n/a	n/a	n/a	n/a	n/a	n/a	n/a	n/a	n/a	n/a	n/a	n/a	n/a	n/a	n/a	n/a	n/a	n/a	n/a	n/a	n/a	n/a	23	1	2023-02-23_15h49.35.893	test_final	2022.2.4	60.12773537469888	n/a
n/a	n/a	n/a	n/a	n/a	n/a	n/a	n/a	n/a	n/a	n/a	n/a	n/a	n/a	n/a	n/a	n/a	n/a	n/a	n/a	n/a	n/a	n/a	n/a	n/a	n/a	n/a	n/a	n/a	n/a	n/a	n/a	n/a	n/a	n/a	n/a	n/a	n/a	n/a	n/a	n/a	n/a	n/a	n/a	n/a	n/a	n/a	n/a	n/a	n/a	n/a	n/a	n/a	n/a	n/a	n/a	n/a	n/a	n/a	n/a	n/a	n/a	n/a	n/a	n/a	n/a	n/a	n/a	n/a	n/a	n/a	n/a	n/a	n/a	n/a	n/a	n/a	n/a	n/a	n/a	n/a	n/a	n/a	n/a	n/a	n/a	282.60275510000065	282.60275510000065	space	83.62174530001357	n/a	n/a	n/a	n/a	n/a	n/a	n/a	n/a	n/a	n/a	n/a	n/a	n/a	n/a	n/a	n/a	n/a	n/a	n/a	n/a	n/a	n/a	n/a	n/a	n/a	n/a	n/a	n/a	n/a	n/a	n/a	n/a	n/a	n/a	n/a	n/a	n/a	n/a	n/a	n/a	n/a	n/a	n/a	n/a	n/a	n/a	n/a	n/a	n/a	n/a	n/a	n/a	n/a	n/a	n/a	n/a	n/a	n/a	n/a	n/a	23	1	2023-02-23_15h49.35.893	test_final	2022.2.4	60.12773537469888	n/a
NimStim_Database/Images/28M_NE_O.BMP	utils/practice/ScrambledFW_12F_NE_C.BMP	utils/practice/ScrambledBW_12F_NE_C.BMP	utils/practice/fake_prac3.jpg	utils/practice/fake_prac10.jpg	n/a	n/a	n/a	n/a	n/a	0.0	0.0	0.0	5.0	n/a	n/a	n/a	n/a	0.0	0.0	0.0	0.0	n/a	n/a	n/a	n/a	n/a	n/a	n/a	n/a	n/a	n/a	n/a	n/a	n/a	n/a	n/a	n/a	n/a	n/a	n/a	n/a	n/a	n/a	n/a	n/a	n/a	n/a	n/a	n/a	n/a	n/a	n/a	n/a	n/a	n/a	n/a	n/a	n/a	n/a	366.24441789998673	368.4144799000351	2.149999999999997	n/a	n/a	n/a	n/a	n/a	n/a	n/a	n/a	n/a	n/a	n/a	n/a	n/a	n/a	n/a	n/a	n/a	n/a	n/a	n/a	n/a	n/a	n/a	n/a	n/a	n/a	n/a	368.4144799000351	368.5250695000286	368.5250695000286	368.563068700023	368.563068700023	368.6301664999919	368.6301664999919	368.6301664999919	368.6301664999919	368.6301664999919	368.6301664999919	368.6301664999919	None	369.3711977000348	369.3711977000348	space	7.995780800003558	n/a	n/a	n/a	n/a	n/a	n/a	n/a	utils/practice/ScrambledFW_12F_NE_C.BMP	n/a	n/a	n/a	n/a	n/a	n/a	utils/practice/ScrambledBW_12F_NE_C.BMP	n/a	n/a	n/a	n/a	n/a	n/a	n/a	n/a	n/a	n/a	n/a	n/a	n/a	n/a	n/a	n/a	n/a	n/a	n/a	n/a	n/a	n/a	n/a	n/a	n/a	n/a	n/a	n/a	23	1	2023-02-23_15h49.35.893	test_final	2022.2.4	60.12773537469888	n/a
NimStim_Database/Images/28M_NE_O.BMP	utils/practice/ScrambledFW_12F_NE_C.BMP	utils/practice/ScrambledBW_12F_NE_C.BMP	utils/practice/fake_prac3.jpg	utils/practice/fake_prac10.jpg	n/a	n/a	n/a	n/a	n/a	0.0	0.0	0.0	5.0	n/a	n/a	n/a	n/a	n/a	n/a	n/a	n/a	n/a	n/a	n/a	n/a	n/a	n/a	n/a	n/a	n/a	n/a	n/a	n/a	n/a	n/a	n/a	n/a	n/a	n/a	n/a	n/a	n/a	n/a	n/a	n/a	n/a	n/a	n/a	n/a	n/a	n/a	n/a	n/a	n/a	n/a	n/a	n/a	n/a	n/a	n/a	n/a	n/a	n/a	n/a	n/a	n/a	n/a	n/a	n/a	n/a	n/a	n/a	n/a	n/a	n/a	n/a	n/a	n/a	n/a	n/a	n/a	n/a	n/a	n/a	377.3987273999956	n/a	n/a	n/a	n/a	n/a	n/a	n/a	n/a	n/a	n/a	n/a	n/a	n/a	n/a	n/a	n/a	n/a	n/a	n/a	n/a	n/a	n/a	n/a	n/a	n/a	n/a	n/a	n/a	utils/practice/ScrambledFW_12F_NE_C.BMP	n/a	n/a	n/a	n/a	n/a	n/a	utils/practice/ScrambledBW_12F_NE_C.BMP	n/a	n/a	n/a	n/a	n/a	n/a	n/a	n/a	n/a	n/a	n/a	n/a	n/a	n/a	n/a	n/a	n/a	n/a	n/a	n/a	n/a	n/a	n/a	n/a	n/a	n/a	n/a	n/a	23	1	2023-02-23_15h49.35.893	test_final	2022.2.4	60.12773537469888	n/a
NimStim_Database/Images/43M_NE_O.BMP	utils/practice/ScrambledFW_11F_NE_C.BMP	utils/practice/ScrambledBW_11F_NE_C.BMP	utils/practice/real_prac11.jpg	utils/practice/fake_prac11.jpg	n/a	n/a	n/a	n/a	n/a	0.0	1.0	1.0	4.0	n/a	n/a	n/a	n/a	0.0	0.0	0.0	0.0	n/a	n/a	n/a	n/a	n/a	n/a	n/a	n/a	n/a	n/a	n/a	n/a	n/a	n/a	n/a	n/a	n/a	n/a	n/a	n/a	n/a	n/a	n/a	n/a	n/a	n/a	n/a	n/a	n/a	n/a	n/a	n/a	n/a	n/a	n/a	n/a	n/a	n/a	379.41325410001446	381.8142099000397	2.389999999999992	n/a	n/a	n/a	n/a	n/a	n/a	n/a	n/a	n/a	n/a	n/a	n/a	n/a	n/a	n/a	n/a	n/a	n/a	n/a	n/a	n/a	n/a	n/a	n/a	n/a	n/a	n/a	381.8142099000397	381.9137050000136	381.9137050000136	381.944954400009	381.944954400009	382.01160060003167	382.01160060003167	382.01160060003167	382.01160060003167	382.01160060003167	382.01160060003167	382.01160060003167	None	382.7427131999866	382.7427131999866	space	17.748426800011657	n/a	n/a	n/a	n/a	n/a	n/a	n/a	utils/practice/ScrambledFW_11F_NE_C.BMP	n/a	n/a	n/a	n/a	n/a	n/a	utils/practice/ScrambledBW_11F_NE_C.BMP	n/a	n/a	n/a	n/a	n/a	n/a	n/a	n/a	n/a	n/a	n/a	n/a	n/a	n/a	n/a	n/a	n/a	n/a	n/a	n/a	n/a	n/a	n/a	n/a	n/a	n/a	n/a	n/a	23	1	2023-02-23_15h49.35.893	test_final	2022.2.4	60.12773537469888	n/a
NimStim_Database/Images/43M_NE_O.BMP	utils/practice/ScrambledFW_11F_NE_C.BMP	utils/practice/ScrambledBW_11F_NE_C.BMP	utils/practice/real_prac11.jpg	utils/practice/fake_prac11.jpg	n/a	n/a	n/a	n/a	n/a	0.0	1.0	1.0	4.0	n/a	n/a	n/a	n/a	n/a	n/a	n/a	n/a	n/a	n/a	n/a	n/a	n/a	n/a	n/a	n/a	n/a	n/a	n/a	n/a	n/a	n/a	n/a	n/a	n/a	n/a	n/a	n/a	n/a	n/a	n/a	n/a	n/a	n/a	n/a	n/a	n/a	n/a	n/a	n/a	n/a	n/a	n/a	n/a	n/a	n/a	n/a	n/a	n/a	n/a	n/a	n/a	n/a	n/a	n/a	n/a	n/a	n/a	n/a	n/a	n/a	n/a	n/a	n/a	n/a	n/a	n/a	n/a	n/a	n/a	n/a	400.52330490003806	n/a	n/a	n/a	n/a	n/a	n/a	n/a	n/a	n/a	n/a	n/a	n/a	n/a	n/a	n/a	n/a	n/a	n/a	n/a	n/a	n/a	n/a	n/a	n/a	n/a	n/a	n/a	n/a	utils/practice/ScrambledFW_11F_NE_C.BMP	n/a	n/a	n/a	n/a	n/a	n/a	utils/practice/ScrambledBW_11F_NE_C.BMP	n/a	n/a	n/a	n/a	n/a	n/a	n/a	n/a	n/a	n/a	n/a	n/a	n/a	n/a	n/a	n/a	n/a	n/a	n/a	n/a	n/a	n/a	n/a	n/a	n/a	n/a	n/a	n/a	23	1	2023-02-23_15h49.35.893	test_final	2022.2.4	60.12773537469888	n/a
NimStim_Database/Images/28M_NE_C.BMP	utils/practice/ScrambledFW_33M_NE_C.BMP	utils/practice/ScrambledBW_33M_NE_C.BMP	utils/practice/real_prac2.jpg	utils/practice/fake_prac16.jpg	n/a	n/a	n/a	n/a	n/a	0.0	2.0	2.0	13.0	n/a	n/a	n/a	n/a	0.0	0.0	0.0	0.0	n/a	n/a	n/a	n/a	n/a	n/a	n/a	n/a	n/a	n/a	n/a	n/a	n/a	n/a	n/a	n/a	n/a	n/a	n/a	n/a	n/a	n/a	n/a	n/a	n/a	n/a	n/a	n/a	n/a	n/a	n/a	n/a	n/a	n/a	n/a	n/a	n/a	n/a	402.53794569999445	404.92209070001263	2.379999999999992	n/a	n/a	n/a	n/a	n/a	n/a	n/a	n/a	n/a	n/a	n/a	n/a	n/a	n/a	n/a	n/a	n/a	n/a	n/a	n/a	n/a	n/a	n/a	n/a	n/a	n/a	n/a	404.92209070001263	405.0211096000276	405.0211096000276	405.0534028999973	405.0534028999973	405.1179651999846	405.1179651999846	405.1179651999846	405.1179651999846	405.1179651999846	405.1179651999846	405.1179651999846	None	405.8508861000301	405.8508861000301	space	14.10205380001571	n/a	n/a	n/a	n/a	n/a	n/a	n/a	utils/practice/ScrambledFW_33M_NE_C.BMP	n/a	n/a	n/a	n/a	n/a	n/a	utils/practice/ScrambledBW_33M_NE_C.BMP	n/a	n/a	n/a	n/a	n/a	n/a	n/a	n/a	n/a	n/a	n/a	n/a	n/a	n/a	n/a	n/a	n/a	n/a	n/a	n/a	n/a	n/a	n/a	n/a	n/a	n/a	n/a	n/a	23	1	2023-02-23_15h49.35.893	test_final	2022.2.4	60.12773537469888	n/a
NimStim_Database/Images/28M_NE_C.BMP	utils/practice/ScrambledFW_33M_NE_C.BMP	utils/practice/ScrambledBW_33M_NE_C.BMP	utils/practice/real_prac2.jpg	utils/practice/fake_prac16.jpg	n/a	n/a	n/a	n/a	n/a	0.0	2.0	2.0	13.0	n/a	n/a	n/a	n/a	n/a	n/a	n/a	n/a	n/a	n/a	n/a	n/a	n/a	n/a	n/a	n/a	n/a	n/a	n/a	n/a	n/a	n/a	n/a	n/a	n/a	n/a	n/a	n/a	n/a	n/a	n/a	n/a	n/a	n/a	n/a	n/a	n/a	n/a	n/a	n/a	n/a	n/a	n/a	n/a	n/a	n/a	n/a	n/a	n/a	n/a	n/a	n/a	n/a	n/a	n/a	n/a	n/a	n/a	n/a	n/a	n/a	n/a	n/a	n/a	n/a	n/a	n/a	n/a	n/a	n/a	n/a	419.9852026000153	n/a	n/a	n/a	n/a	n/a	n/a	n/a	n/a	n/a	n/a	n/a	n/a	n/a	n/a	n/a	n/a	n/a	n/a	n/a	n/a	n/a	n/a	n/a	n/a	n/a	n/a	n/a	n/a	utils/practice/ScrambledFW_33M_NE_C.BMP	n/a	n/a	n/a	n/a	n/a	n/a	utils/practice/ScrambledBW_33M_NE_C.BMP	n/a	n/a	n/a	n/a	n/a	n/a	n/a	n/a	n/a	n/a	n/a	n/a	n/a	n/a	n/a	n/a	n/a	n/a	n/a	n/a	n/a	n/a	n/a	n/a	n/a	n/a	n/a	n/a	23	1	2023-02-23_15h49.35.893	test_final	2022.2.4	60.12773537469888	n/a
NimStim_Database/Images/03F_NE_O.BMP	utils/practice/ScrambledFW_23M_NE_C.BMP	utils/practice/ScrambledBW_23M_NE_C.BMP	utils/practice/fake_prac7.jpg	utils/practice/real_prac6.jpg	n/a	n/a	n/a	n/a	n/a	0.0	3.0	3.0	8.0	n/a	n/a	n/a	n/a	0.0	0.0	0.0	0.0	n/a	n/a	n/a	n/a	n/a	n/a	n/a	n/a	n/a	n/a	n/a	n/a	n/a	n/a	n/a	n/a	n/a	n/a	n/a	n/a	n/a	n/a	n/a	n/a	n/a	n/a	n/a	n/a	n/a	n/a	n/a	n/a	n/a	n/a	n/a	n/a	n/a	n/a	421.9997810000205	424.01620930002537	2.0	n/a	n/a	n/a	n/a	n/a	n/a	n/a	n/a	n/a	n/a	n/a	n/a	n/a	n/a	n/a	n/a	n/a	n/a	n/a	n/a	n/a	n/a	n/a	n/a	n/a	n/a	n/a	424.01620930002537	424.1307502000127	424.1307502000127	424.1662253999966	424.1662253999966	424.2291685999953	424.2291685999953	424.2291685999953	424.2291685999953	424.2291685999953	424.2291685999953	424.2291685999953	None	424.9632321000099	424.9632321000099	space	1.6035258999909274	n/a	n/a	n/a	n/a	n/a	n/a	n/a	utils/practice/ScrambledFW_23M_NE_C.BMP	n/a	n/a	n/a	n/a	n/a	n/a	utils/practice/ScrambledBW_23M_NE_C.BMP	n/a	n/a	n/a	n/a	n/a	n/a	n/a	n/a	n/a	n/a	n/a	n/a	n/a	n/a	n/a	n/a	n/a	n/a	n/a	n/a	n/a	n/a	n/a	n/a	n/a	n/a	n/a	n/a	23	1	2023-02-23_15h49.35.893	test_final	2022.2.4	60.12773537469888	n/a
NimStim_Database/Images/03F_NE_O.BMP	utils/practice/ScrambledFW_23M_NE_C.BMP	utils/practice/ScrambledBW_23M_NE_C.BMP	utils/practice/fake_prac7.jpg	utils/practice/real_prac6.jpg	n/a	n/a	n/a	n/a	n/a	0.0	3.0	3.0	8.0	n/a	n/a	n/a	n/a	n/a	n/a	n/a	n/a	n/a	n/a	n/a	n/a	n/a	n/a	n/a	n/a	n/a	n/a	n/a	n/a	n/a	n/a	n/a	n/a	n/a	n/a	n/a	n/a	n/a	n/a	n/a	n/a	n/a	n/a	n/a	n/a	n/a	n/a	n/a	n/a	n/a	n/a	n/a	n/a	n/a	n/a	n/a	n/a	n/a	n/a	n/a	n/a	n/a	n/a	n/a	n/a	n/a	n/a	n/a	n/a	n/a	n/a	n/a	n/a	n/a	n/a	n/a	n/a	n/a	n/a	n/a	426.594635299989	n/a	n/a	n/a	n/a	n/a	n/a	n/a	n/a	n/a	n/a	n/a	n/a	n/a	n/a	n/a	n/a	n/a	n/a	n/a	n/a	n/a	n/a	n/a	n/a	n/a	n/a	n/a	n/a	utils/practice/ScrambledFW_23M_NE_C.BMP	n/a	n/a	n/a	n/a	n/a	n/a	utils/practice/ScrambledBW_23M_NE_C.BMP	n/a	n/a	n/a	n/a	n/a	n/a	n/a	n/a	n/a	n/a	n/a	n/a	n/a	n/a	n/a	n/a	n/a	n/a	n/a	n/a	n/a	n/a	n/a	n/a	n/a	n/a	n/a	n/a	23	1	2023-02-23_15h49.35.893	test_final	2022.2.4	60.12773537469888	n/a
NimStim_Database/Images/16F_NE_O.BMP	utils/practice/ScrambledFW_16F_NE_O.BMP	utils/practice/ScrambledBW_16F_NE_O.BMP	utils/practice/fake_prac6.jpg	utils/practice/fake_prac15.jpg	n/a	n/a	n/a	n/a	n/a	0.0	4.0	4.0	7.0	0.0	0.0	0.0	0.0	n/a	n/a	n/a	n/a	n/a	n/a	n/a	n/a	n/a	n/a	n/a	n/a	n/a	n/a	n/a	n/a	n/a	n/a	n/a	n/a	n/a	n/a	n/a	n/a	n/a	n/a	n/a	n/a	n/a	n/a	n/a	n/a	n/a	n/a	n/a	n/a	n/a	n/a	n/a	n/a	n/a	n/a	428.609210500028	430.7111284999992	2.089999999999998	n/a	n/a	n/a	n/a	n/a	n/a	n/a	n/a	n/a	n/a	n/a	n/a	n/a	n/a	n/a	n/a	n/a	n/a	n/a	n/a	n/a	n/a	n/a	n/a	n/a	n/a	n/a	430.7111284999992	430.827250500035	430.827250500035	430.858752500033	430.858752500033	430.92313930002274	430.92313930002274	430.92313930002274	430.92313930002274	430.92313930002274	430.92313930002274	430.92313930002274	right	n/a	n/a	n/a	n/a	0.456978700007312	431.4061662000022	n/a	n/a	n/a	n/a	n/a	utils/practice/ScrambledFW_16F_NE_O.BMP	n/a	n/a	n/a	n/a	n/a	n/a	utils/practice/ScrambledBW_16F_NE_O.BMP	n/a	n/a	n/a	n/a	n/a	n/a	n/a	n/a	n/a	n/a	n/a	n/a	n/a	n/a	n/a	n/a	n/a	n/a	n/a	n/a	n/a	n/a	n/a	n/a	n/a	n/a	n/a	n/a	23	1	2023-02-23_15h49.35.893	test_final	2022.2.4	60.12773537469888	n/a
NimStim_Database/Images/16F_NE_O.BMP	utils/practice/ScrambledFW_16F_NE_O.BMP	utils/practice/ScrambledBW_16F_NE_O.BMP	utils/practice/fake_prac6.jpg	utils/practice/fake_prac15.jpg	n/a	n/a	n/a	n/a	n/a	0.0	4.0	4.0	7.0	n/a	n/a	n/a	n/a	n/a	n/a	n/a	n/a	0.0	0.0	0.0	0.0	n/a	n/a	n/a	n/a	n/a	n/a	n/a	n/a	n/a	n/a	n/a	n/a	n/a	n/a	n/a	n/a	n/a	n/a	n/a	n/a	n/a	n/a	n/a	n/a	n/a	n/a	n/a	n/a	n/a	n/a	n/a	n/a	n/a	n/a	n/a	n/a	n/a	n/a	n/a	n/a	n/a	n/a	n/a	n/a	n/a	n/a	n/a	432.4217104000272	432.4217104000272	1.0	1.9012776999734344	434.352956000017	434.352956000017	434.352956000017	434.352956000017	434.352956000017	434.352956000017	4.0	1.4986931000021286	n/a	n/a	n/a	n/a	n/a	n/a	n/a	n/a	n/a	n/a	n/a	n/a	n/a	n/a	n/a	n/a	n/a	n/a	n/a	n/a	n/a	n/a	n/a	n/a	n/a	n/a	n/a	n/a	n/a	utils/practice/ScrambledFW_16F_NE_O.BMP	n/a	n/a	n/a	n/a	n/a	n/a	utils/practice/ScrambledBW_16F_NE_O.BMP	n/a	n/a	n/a	n/a	n/a	n/a	n/a	n/a	n/a	n/a	n/a	n/a	n/a	n/a	n/a	n/a	n/a	n/a	n/a	n/a	n/a	n/a	n/a	n/a	n/a	n/a	n/a	n/a	23	1	2023-02-23_15h49.35.893	test_final	2022.2.4	60.12773537469888	n/a
NimStim_Database/Images/16F_NE_O.BMP	utils/practice/ScrambledFW_16F_NE_O.BMP	utils/practice/ScrambledBW_16F_NE_O.BMP	utils/practice/fake_prac6.jpg	utils/practice/fake_prac15.jpg	n/a	n/a	n/a	n/a	n/a	0.0	4.0	4.0	7.0	n/a	n/a	n/a	n/a	n/a	n/a	n/a	n/a	n/a	n/a	n/a	n/a	n/a	n/a	n/a	n/a	n/a	n/a	n/a	n/a	n/a	n/a	n/a	n/a	n/a	n/a	n/a	n/a	n/a	n/a	n/a	n/a	n/a	n/a	n/a	n/a	n/a	n/a	n/a	n/a	n/a	n/a	n/a	n/a	n/a	n/a	n/a	n/a	n/a	n/a	n/a	n/a	n/a	n/a	n/a	n/a	n/a	n/a	n/a	n/a	n/a	n/a	n/a	n/a	n/a	n/a	n/a	n/a	n/a	n/a	n/a	435.8843874000013	n/a	n/a	n/a	n/a	n/a	n/a	n/a	n/a	n/a	n/a	n/a	n/a	n/a	n/a	n/a	n/a	n/a	n/a	n/a	n/a	n/a	n/a	n/a	n/a	n/a	n/a	n/a	n/a	utils/practice/ScrambledFW_16F_NE_O.BMP	n/a	n/a	n/a	n/a	n/a	n/a	utils/practice/ScrambledBW_16F_NE_O.BMP	n/a	n/a	n/a	n/a	n/a	n/a	n/a	n/a	n/a	n/a	n/a	n/a	n/a	n/a	n/a	n/a	n/a	n/a	n/a	n/a	n/a	n/a	n/a	n/a	n/a	n/a	n/a	n/a	23	1	2023-02-23_15h49.35.893	test_final	2022.2.4	60.12773537469888	n/a
NimStim_Database/Images/08F_NE_O.BMP	utils/practice/ScrambledFW_15F_NE_O.BMP	utils/practice/ScrambledBW_15F_NE_O.BMP	utils/practice/fake_prac9.jpg	utils/practice/real_prac5.jpg	n/a	n/a	n/a	n/a	n/a	0.0	5.0	5.0	6.0	n/a	n/a	n/a	n/a	0.0	0.0	0.0	0.0	n/a	n/a	n/a	n/a	n/a	n/a	n/a	n/a	n/a	n/a	n/a	n/a	n/a	n/a	n/a	n/a	n/a	n/a	n/a	n/a	n/a	n/a	n/a	n/a	n/a	n/a	n/a	n/a	n/a	n/a	n/a	n/a	n/a	n/a	n/a	n/a	n/a	n/a	437.89876459998777	440.2324935999932	2.319999999999993	n/a	n/a	n/a	n/a	n/a	n/a	n/a	n/a	n/a	n/a	n/a	n/a	n/a	n/a	n/a	n/a	n/a	n/a	n/a	n/a	n/a	n/a	n/a	n/a	n/a	n/a	n/a	440.2324935999932	440.3834020000068	440.3834020000068	440.4148138000164	440.4148138000164	440.4733144000056	440.4733144000056	440.4733144000056	440.4733144000056	440.4733144000056	440.4733144000056	440.4733144000056	None	441.2119169000071	441.2119169000071	space	6.423691599979065	n/a	n/a	n/a	n/a	n/a	n/a	n/a	utils/practice/ScrambledFW_15F_NE_O.BMP	n/a	n/a	n/a	n/a	n/a	n/a	utils/practice/ScrambledBW_15F_NE_O.BMP	n/a	n/a	n/a	n/a	n/a	n/a	n/a	n/a	n/a	n/a	n/a	n/a	n/a	n/a	n/a	n/a	n/a	n/a	n/a	n/a	n/a	n/a	n/a	n/a	n/a	n/a	n/a	n/a	23	1	2023-02-23_15h49.35.893	test_final	2022.2.4	60.12773537469888	n/a
NimStim_Database/Images/08F_NE_O.BMP	utils/practice/ScrambledFW_15F_NE_O.BMP	utils/practice/ScrambledBW_15F_NE_O.BMP	utils/practice/fake_prac9.jpg	utils/practice/real_prac5.jpg	n/a	n/a	n/a	n/a	n/a	0.0	5.0	5.0	6.0	n/a	n/a	n/a	n/a	n/a	n/a	n/a	n/a	n/a	n/a	n/a	n/a	n/a	n/a	n/a	n/a	n/a	n/a	n/a	n/a	n/a	n/a	n/a	n/a	n/a	n/a	n/a	n/a	n/a	n/a	n/a	n/a	n/a	n/a	n/a	n/a	n/a	n/a	n/a	n/a	n/a	n/a	n/a	n/a	n/a	n/a	n/a	n/a	n/a	n/a	n/a	n/a	n/a	n/a	n/a	n/a	n/a	n/a	n/a	n/a	n/a	n/a	n/a	n/a	n/a	n/a	n/a	n/a	n/a	n/a	n/a	447.65458810003474	n/a	n/a	n/a	n/a	n/a	n/a	n/a	n/a	n/a	n/a	n/a	n/a	n/a	n/a	n/a	n/a	n/a	n/a	n/a	n/a	n/a	n/a	n/a	n/a	n/a	n/a	n/a	n/a	utils/practice/ScrambledFW_15F_NE_O.BMP	n/a	n/a	n/a	n/a	n/a	n/a	utils/practice/ScrambledBW_15F_NE_O.BMP	n/a	n/a	n/a	n/a	n/a	n/a	n/a	n/a	n/a	n/a	n/a	n/a	n/a	n/a	n/a	n/a	n/a	n/a	n/a	n/a	n/a	n/a	n/a	n/a	n/a	n/a	n/a	n/a	23	1	2023-02-23_15h49.35.893	test_final	2022.2.4	60.12773537469888	n/a
NimStim_Database/Images/23M_NE_C.BMP	utils/practice/ScrambledFW_28M_NE_C.BMP	utils/practice/ScrambledBW_28M_NE_C.BMP	utils/practice/real_prac8.jpg	utils/practice/real_prac3.jpg	n/a	n/a	n/a	n/a	n/a	0.0	6.0	6.0	11.0	0.0	0.0	0.0	0.0	n/a	n/a	n/a	n/a	n/a	n/a	n/a	n/a	n/a	n/a	n/a	n/a	n/a	n/a	n/a	n/a	n/a	n/a	n/a	n/a	n/a	n/a	n/a	n/a	n/a	n/a	n/a	n/a	n/a	n/a	n/a	n/a	n/a	n/a	n/a	n/a	n/a	n/a	n/a	n/a	n/a	n/a	449.66939550003735	451.7047131999861	2.02	n/a	n/a	n/a	n/a	n/a	n/a	n/a	n/a	n/a	n/a	n/a	n/a	n/a	n/a	n/a	n/a	n/a	n/a	n/a	n/a	n/a	n/a	n/a	n/a	n/a	n/a	n/a	451.7047131999861	451.8361819999991	451.8361819999991	451.86828330002027	451.86828330002027	451.9355399000342	451.9355399000342	451.9355399000342	451.9355399000342	451.9355399000342	451.9355399000342	451.9355399000342	left	n/a	n/a	n/a	n/a	0.5499459999846295	452.5161969999899	n/a	n/a	n/a	n/a	n/a	utils/practice/ScrambledFW_28M_NE_C.BMP	n/a	n/a	n/a	n/a	n/a	n/a	utils/practice/ScrambledBW_28M_NE_C.BMP	n/a	n/a	n/a	n/a	n/a	n/a	n/a	n/a	n/a	n/a	n/a	n/a	n/a	n/a	n/a	n/a	n/a	n/a	n/a	n/a	n/a	n/a	n/a	n/a	n/a	n/a	n/a	n/a	23	1	2023-02-23_15h49.35.893	test_final	2022.2.4	60.12773537469888	n/a
NimStim_Database/Images/23M_NE_C.BMP	utils/practice/ScrambledFW_28M_NE_C.BMP	utils/practice/ScrambledBW_28M_NE_C.BMP	utils/practice/real_prac8.jpg	utils/practice/real_prac3.jpg	n/a	n/a	n/a	n/a	n/a	0.0	6.0	6.0	11.0	n/a	n/a	n/a	n/a	n/a	n/a	n/a	n/a	0.0	0.0	0.0	0.0	n/a	n/a	n/a	n/a	n/a	n/a	n/a	n/a	n/a	n/a	n/a	n/a	n/a	n/a	n/a	n/a	n/a	n/a	n/a	n/a	n/a	n/a	n/a	n/a	n/a	n/a	n/a	n/a	n/a	n/a	n/a	n/a	n/a	n/a	n/a	n/a	n/a	n/a	n/a	n/a	n/a	n/a	n/a	n/a	n/a	n/a	n/a	453.5318234000006	453.5318234000006	1.0	1.635113900003489	455.1966170000378	455.1966170000378	455.1966170000378	455.1966170000378	455.1966170000378	455.1966170000378	1.0	0.9605580000206828	n/a	n/a	n/a	n/a	n/a	n/a	n/a	n/a	n/a	n/a	n/a	n/a	n/a	n/a	n/a	n/a	n/a	n/a	n/a	n/a	n/a	n/a	n/a	n/a	n/a	n/a	n/a	n/a	n/a	utils/practice/ScrambledFW_28M_NE_C.BMP	n/a	n/a	n/a	n/a	n/a	n/a	utils/practice/ScrambledBW_28M_NE_C.BMP	n/a	n/a	n/a	n/a	n/a	n/a	n/a	n/a	n/a	n/a	n/a	n/a	n/a	n/a	n/a	n/a	n/a	n/a	n/a	n/a	n/a	n/a	n/a	n/a	n/a	n/a	n/a	n/a	23	1	2023-02-23_15h49.35.893	test_final	2022.2.4	60.12773537469888	n/a
NimStim_Database/Images/23M_NE_C.BMP	utils/practice/ScrambledFW_28M_NE_C.BMP	utils/practice/ScrambledBW_28M_NE_C.BMP	utils/practice/real_prac8.jpg	utils/practice/real_prac3.jpg	n/a	n/a	n/a	n/a	n/a	0.0	6.0	6.0	11.0	n/a	n/a	n/a	n/a	n/a	n/a	n/a	n/a	n/a	n/a	n/a	n/a	n/a	n/a	n/a	n/a	n/a	n/a	n/a	n/a	n/a	n/a	n/a	n/a	n/a	n/a	n/a	n/a	n/a	n/a	n/a	n/a	n/a	n/a	n/a	n/a	n/a	n/a	n/a	n/a	n/a	n/a	n/a	n/a	n/a	n/a	n/a	n/a	n/a	n/a	n/a	n/a	n/a	n/a	n/a	n/a	n/a	n/a	n/a	n/a	n/a	n/a	n/a	n/a	n/a	n/a	n/a	n/a	n/a	n/a	n/a	456.1787975000334	n/a	n/a	n/a	n/a	n/a	n/a	n/a	n/a	n/a	n/a	n/a	n/a	n/a	n/a	n/a	n/a	n/a	n/a	n/a	n/a	n/a	n/a	n/a	n/a	n/a	n/a	n/a	n/a	utils/practice/ScrambledFW_28M_NE_C.BMP	n/a	n/a	n/a	n/a	n/a	n/a	utils/practice/ScrambledBW_28M_NE_C.BMP	n/a	n/a	n/a	n/a	n/a	n/a	n/a	n/a	n/a	n/a	n/a	n/a	n/a	n/a	n/a	n/a	n/a	n/a	n/a	n/a	n/a	n/a	n/a	n/a	n/a	n/a	n/a	n/a	23	1	2023-02-23_15h49.35.893	test_final	2022.2.4	60.12773537469888	n/a
NimStim_Database/Images/25M_NE_C.BMP	utils/practice/ScrambledFW_01F_NE_O.BMP	utils/practice/ScrambledBW_01F_NE_O.BMP	utils/practice/real_prac1.jpg	utils/practice/real_prac10.jpg	n/a	n/a	n/a	n/a	n/a	0.0	7.0	7.0	0.0	n/a	n/a	n/a	n/a	0.0	0.0	0.0	0.0	n/a	n/a	n/a	n/a	n/a	n/a	n/a	n/a	n/a	n/a	n/a	n/a	n/a	n/a	n/a	n/a	n/a	n/a	n/a	n/a	n/a	n/a	n/a	n/a	n/a	n/a	n/a	n/a	n/a	n/a	n/a	n/a	n/a	n/a	n/a	n/a	n/a	n/a	458.193348700006	460.3266423000023	2.129999999999997	n/a	n/a	n/a	n/a	n/a	n/a	n/a	n/a	n/a	n/a	n/a	n/a	n/a	n/a	n/a	n/a	n/a	n/a	n/a	n/a	n/a	n/a	n/a	n/a	n/a	n/a	n/a	460.3266423000023	460.4408443000284	460.4408443000284	460.4785609000246	460.4785609000246	460.54303980001714	460.54303980001714	460.54303980001714	460.54303980001714	460.54303980001714	460.54303980001714	460.54303980001714	None	461.27301850001095	461.27301850001095	space	1.5760372999939136	n/a	n/a	n/a	n/a	n/a	n/a	n/a	utils/practice/ScrambledFW_01F_NE_O.BMP	n/a	n/a	n/a	n/a	n/a	n/a	utils/practice/ScrambledBW_01F_NE_O.BMP	n/a	n/a	n/a	n/a	n/a	n/a	n/a	n/a	n/a	n/a	n/a	n/a	n/a	n/a	n/a	n/a	n/a	n/a	n/a	n/a	n/a	n/a	n/a	n/a	n/a	n/a	n/a	n/a	23	1	2023-02-23_15h49.35.893	test_final	2022.2.4	60.12773537469888	n/a
NimStim_Database/Images/25M_NE_C.BMP	utils/practice/ScrambledFW_01F_NE_O.BMP	utils/practice/ScrambledBW_01F_NE_O.BMP	utils/practice/real_prac1.jpg	utils/practice/real_prac10.jpg	n/a	n/a	n/a	n/a	n/a	0.0	7.0	7.0	0.0	n/a	n/a	n/a	n/a	n/a	n/a	n/a	n/a	n/a	n/a	n/a	n/a	n/a	n/a	n/a	n/a	n/a	n/a	n/a	n/a	n/a	n/a	n/a	n/a	n/a	n/a	n/a	n/a	n/a	n/a	n/a	n/a	n/a	n/a	n/a	n/a	n/a	n/a	n/a	n/a	n/a	n/a	n/a	n/a	n/a	n/a	n/a	n/a	n/a	n/a	n/a	n/a	n/a	n/a	n/a	n/a	n/a	n/a	n/a	n/a	n/a	n/a	n/a	n/a	n/a	n/a	n/a	n/a	n/a	n/a	n/a	462.8713061999879	n/a	n/a	n/a	n/a	n/a	n/a	n/a	n/a	n/a	n/a	n/a	n/a	n/a	n/a	n/a	n/a	n/a	n/a	n/a	n/a	n/a	n/a	n/a	n/a	n/a	n/a	n/a	n/a	utils/practice/ScrambledFW_01F_NE_O.BMP	n/a	n/a	n/a	n/a	n/a	n/a	utils/practice/ScrambledBW_01F_NE_O.BMP	n/a	n/a	n/a	n/a	n/a	n/a	n/a	n/a	n/a	n/a	n/a	n/a	n/a	n/a	n/a	n/a	n/a	n/a	n/a	n/a	n/a	n/a	n/a	n/a	n/a	n/a	n/a	n/a	23	1	2023-02-23_15h49.35.893	test_final	2022.2.4	60.12773537469888	n/a
NimStim_Database/Images/24M_NE_C.BMP	utils/practice/ScrambledFW_43M_NE_O.BMP	utils/practice/ScrambledBW_43M_NE_O.BMP	utils/practice/fake_prac13.jpg	utils/practice/real_prac12.jpg	n/a	n/a	n/a	n/a	n/a	0.0	8.0	8.0	15.0	0.0	0.0	0.0	0.0	n/a	n/a	n/a	n/a	n/a	n/a	n/a	n/a	n/a	n/a	n/a	n/a	n/a	n/a	n/a	n/a	n/a	n/a	n/a	n/a	n/a	n/a	n/a	n/a	n/a	n/a	n/a	n/a	n/a	n/a	n/a	n/a	n/a	n/a	n/a	n/a	n/a	n/a	n/a	n/a	n/a	n/a	464.8858483000077	467.1523402000312	2.2499999999999947	n/a	n/a	n/a	n/a	n/a	n/a	n/a	n/a	n/a	n/a	n/a	n/a	n/a	n/a	n/a	n/a	n/a	n/a	n/a	n/a	n/a	n/a	n/a	n/a	n/a	n/a	n/a	467.1523402000312	467.2856938000186	467.2856938000186	467.3312634000322	467.3312634000322	467.3926569999894	467.3926569999894	467.3926569999894	467.3926569999894	467.3926569999894	467.3926569999894	467.3926569999894	right	n/a	n/a	n/a	n/a	0.454476400045678	467.8660471999901	n/a	n/a	n/a	n/a	n/a	utils/practice/ScrambledFW_43M_NE_O.BMP	n/a	n/a	n/a	n/a	n/a	n/a	utils/practice/ScrambledBW_43M_NE_O.BMP	n/a	n/a	n/a	n/a	n/a	n/a	n/a	n/a	n/a	n/a	n/a	n/a	n/a	n/a	n/a	n/a	n/a	n/a	n/a	n/a	n/a	n/a	n/a	n/a	n/a	n/a	n/a	n/a	23	1	2023-02-23_15h49.35.893	test_final	2022.2.4	60.12773537469888	n/a
NimStim_Database/Images/24M_NE_C.BMP	utils/practice/ScrambledFW_43M_NE_O.BMP	utils/practice/ScrambledBW_43M_NE_O.BMP	utils/practice/fake_prac13.jpg	utils/practice/real_prac12.jpg	n/a	n/a	n/a	n/a	n/a	0.0	8.0	8.0	15.0	n/a	n/a	n/a	n/a	n/a	n/a	n/a	n/a	0.0	0.0	0.0	0.0	n/a	n/a	n/a	n/a	n/a	n/a	n/a	n/a	n/a	n/a	n/a	n/a	n/a	n/a	n/a	n/a	n/a	n/a	n/a	n/a	n/a	n/a	n/a	n/a	n/a	n/a	n/a	n/a	n/a	n/a	n/a	n/a	n/a	n/a	n/a	n/a	n/a	n/a	n/a	n/a	n/a	n/a	n/a	n/a	n/a	n/a	n/a	468.8816119999974	468.8816119999974	4.0	0.9353344999835826	469.8470287999953	469.8470287999953	469.8470287999953	469.8470287999953	469.8470287999953	469.8470287999953	4.0	0.6169588000047952	n/a	n/a	n/a	n/a	n/a	n/a	n/a	n/a	n/a	n/a	n/a	n/a	n/a	n/a	n/a	n/a	n/a	n/a	n/a	n/a	n/a	n/a	n/a	n/a	n/a	n/a	n/a	n/a	n/a	utils/practice/ScrambledFW_43M_NE_O.BMP	n/a	n/a	n/a	n/a	n/a	n/a	utils/practice/ScrambledBW_43M_NE_O.BMP	n/a	n/a	n/a	n/a	n/a	n/a	n/a	n/a	n/a	n/a	n/a	n/a	n/a	n/a	n/a	n/a	n/a	n/a	n/a	n/a	n/a	n/a	n/a	n/a	n/a	n/a	n/a	n/a	23	1	2023-02-23_15h49.35.893	test_final	2022.2.4	60.12773537469888	n/a
NimStim_Database/Images/24M_NE_C.BMP	utils/practice/ScrambledFW_43M_NE_O.BMP	utils/practice/ScrambledBW_43M_NE_O.BMP	utils/practice/fake_prac13.jpg	utils/practice/real_prac12.jpg	n/a	n/a	n/a	n/a	n/a	0.0	8.0	8.0	15.0	n/a	n/a	n/a	n/a	n/a	n/a	n/a	n/a	n/a	n/a	n/a	n/a	n/a	n/a	n/a	n/a	n/a	n/a	n/a	n/a	n/a	n/a	n/a	n/a	n/a	n/a	n/a	n/a	n/a	n/a	n/a	n/a	n/a	n/a	n/a	n/a	n/a	n/a	n/a	n/a	n/a	n/a	n/a	n/a	n/a	n/a	n/a	n/a	n/a	n/a	n/a	n/a	n/a	n/a	n/a	n/a	n/a	n/a	n/a	n/a	n/a	n/a	n/a	n/a	n/a	n/a	n/a	n/a	n/a	n/a	n/a	470.49649570003385	n/a	n/a	n/a	n/a	n/a	n/a	n/a	n/a	n/a	n/a	n/a	n/a	n/a	n/a	n/a	n/a	n/a	n/a	n/a	n/a	n/a	n/a	n/a	n/a	n/a	n/a	n/a	n/a	utils/practice/ScrambledFW_43M_NE_O.BMP	n/a	n/a	n/a	n/a	n/a	n/a	utils/practice/ScrambledBW_43M_NE_O.BMP	n/a	n/a	n/a	n/a	n/a	n/a	n/a	n/a	n/a	n/a	n/a	n/a	n/a	n/a	n/a	n/a	n/a	n/a	n/a	n/a	n/a	n/a	n/a	n/a	n/a	n/a	n/a	n/a	23	1	2023-02-23_15h49.35.893	test_final	2022.2.4	60.12773537469888	n/a
NimStim_Database/Images/12F_NE_C.BMP	utils/practice/ScrambledFW_03F_NE_O.BMP	utils/practice/ScrambledBW_03F_NE_O.BMP	utils/practice/real_prac9.jpg	utils/practice/real_prac13.jpg	n/a	n/a	n/a	n/a	n/a	0.0	9.0	9.0	1.0	0.0	0.0	0.0	0.0	n/a	n/a	n/a	n/a	n/a	n/a	n/a	n/a	n/a	n/a	n/a	n/a	n/a	n/a	n/a	n/a	n/a	n/a	n/a	n/a	n/a	n/a	n/a	n/a	n/a	n/a	n/a	n/a	n/a	n/a	n/a	n/a	n/a	n/a	n/a	n/a	n/a	n/a	n/a	n/a	n/a	n/a	472.5108761999873	474.7770716000232	2.2499999999999947	n/a	n/a	n/a	n/a	n/a	n/a	n/a	n/a	n/a	n/a	n/a	n/a	n/a	n/a	n/a	n/a	n/a	n/a	n/a	n/a	n/a	n/a	n/a	n/a	n/a	n/a	n/a	474.7770716000232	474.9267908000038	474.9267908000038	474.9598475000239	474.9598475000239	475.0177650999976	475.0177650999976	475.0177650999976	475.0177650999976	475.0177650999976	475.0177650999976	475.0177650999976	right	n/a	n/a	n/a	n/a	0.6812672999803908	475.7241740000318	n/a	n/a	n/a	n/a	n/a	utils/practice/ScrambledFW_03F_NE_O.BMP	n/a	n/a	n/a	n/a	n/a	n/a	utils/practice/ScrambledBW_03F_NE_O.BMP	n/a	n/a	n/a	n/a	n/a	n/a	n/a	n/a	n/a	n/a	n/a	n/a	n/a	n/a	n/a	n/a	n/a	n/a	n/a	n/a	n/a	n/a	n/a	n/a	n/a	n/a	n/a	n/a	23	1	2023-02-23_15h49.35.893	test_final	2022.2.4	60.12773537469888	n/a
NimStim_Database/Images/12F_NE_C.BMP	utils/practice/ScrambledFW_03F_NE_O.BMP	utils/practice/ScrambledBW_03F_NE_O.BMP	utils/practice/real_prac9.jpg	utils/practice/real_prac13.jpg	n/a	n/a	n/a	n/a	n/a	0.0	9.0	9.0	1.0	n/a	n/a	n/a	n/a	n/a	n/a	n/a	n/a	0.0	0.0	0.0	0.0	n/a	n/a	n/a	n/a	n/a	n/a	n/a	n/a	n/a	n/a	n/a	n/a	n/a	n/a	n/a	n/a	n/a	n/a	n/a	n/a	n/a	n/a	n/a	n/a	n/a	n/a	n/a	n/a	n/a	n/a	n/a	n/a	n/a	n/a	n/a	n/a	n/a	n/a	n/a	n/a	n/a	n/a	n/a	n/a	n/a	n/a	n/a	476.73936669999966	476.73936669999966	4.0	0.3440029000048525	477.10586760001024	477.10586760001024	477.10586760001024	477.10586760001024	477.10586760001024	477.10586760001024	1.0	0.378979499975685	n/a	n/a	n/a	n/a	n/a	n/a	n/a	n/a	n/a	n/a	n/a	n/a	n/a	n/a	n/a	n/a	n/a	n/a	n/a	n/a	n/a	n/a	n/a	n/a	n/a	n/a	n/a	n/a	n/a	utils/practice/ScrambledFW_03F_NE_O.BMP	n/a	n/a	n/a	n/a	n/a	n/a	utils/practice/ScrambledBW_03F_NE_O.BMP	n/a	n/a	n/a	n/a	n/a	n/a	n/a	n/a	n/a	n/a	n/a	n/a	n/a	n/a	n/a	n/a	n/a	n/a	n/a	n/a	n/a	n/a	n/a	n/a	n/a	n/a	n/a	n/a	23	1	2023-02-23_15h49.35.893	test_final	2022.2.4	60.12773537469888	n/a
NimStim_Database/Images/12F_NE_C.BMP	utils/practice/ScrambledFW_03F_NE_O.BMP	utils/practice/ScrambledBW_03F_NE_O.BMP	utils/practice/real_prac9.jpg	utils/practice/real_prac13.jpg	n/a	n/a	n/a	n/a	n/a	0.0	9.0	9.0	1.0	n/a	n/a	n/a	n/a	n/a	n/a	n/a	n/a	n/a	n/a	n/a	n/a	n/a	n/a	n/a	n/a	n/a	n/a	n/a	n/a	n/a	n/a	n/a	n/a	n/a	n/a	n/a	n/a	n/a	n/a	n/a	n/a	n/a	n/a	n/a	n/a	n/a	n/a	n/a	n/a	n/a	n/a	n/a	n/a	n/a	n/a	n/a	n/a	n/a	n/a	n/a	n/a	n/a	n/a	n/a	n/a	n/a	n/a	n/a	n/a	n/a	n/a	n/a	n/a	n/a	n/a	n/a	n/a	n/a	n/a	n/a	477.50521660002414	n/a	n/a	n/a	n/a	n/a	n/a	n/a	n/a	n/a	n/a	n/a	n/a	n/a	n/a	n/a	n/a	n/a	n/a	n/a	n/a	n/a	n/a	n/a	n/a	n/a	n/a	n/a	n/a	utils/practice/ScrambledFW_03F_NE_O.BMP	n/a	n/a	n/a	n/a	n/a	n/a	utils/practice/ScrambledBW_03F_NE_O.BMP	n/a	n/a	n/a	n/a	n/a	n/a	n/a	n/a	n/a	n/a	n/a	n/a	n/a	n/a	n/a	n/a	n/a	n/a	n/a	n/a	n/a	n/a	n/a	n/a	n/a	n/a	n/a	n/a	23	1	2023-02-23_15h49.35.893	test_final	2022.2.4	60.12773537469888	n/a
NimStim_Database/Images/06F_NE_O.BMP	utils/practice/ScrambledFW_06F_NE_O.BMP	utils/practice/ScrambledBW_06F_NE_O.BMP	utils/practice/fake_prac2.jpg	utils/practice/real_prac15.jpg	n/a	n/a	n/a	n/a	n/a	0.0	10.0	10.0	2.0	0.0	0.0	0.0	0.0	n/a	n/a	n/a	n/a	n/a	n/a	n/a	n/a	n/a	n/a	n/a	n/a	n/a	n/a	n/a	n/a	n/a	n/a	n/a	n/a	n/a	n/a	n/a	n/a	n/a	n/a	n/a	n/a	n/a	n/a	n/a	n/a	n/a	n/a	n/a	n/a	n/a	n/a	n/a	n/a	n/a	n/a	479.5199925000197	481.60466469998937	2.0799999999999983	n/a	n/a	n/a	n/a	n/a	n/a	n/a	n/a	n/a	n/a	n/a	n/a	n/a	n/a	n/a	n/a	n/a	n/a	n/a	n/a	n/a	n/a	n/a	n/a	n/a	n/a	n/a	481.60466469998937	481.7361513000215	481.7361513000215	481.76915130001726	481.76915130001726	481.8267594000208	481.8267594000208	481.8267594000208	481.8267594000208	481.8267594000208	481.8267594000208	481.8267594000208	right	n/a	n/a	n/a	n/a	0.5334312000195496	482.3834375999868	n/a	n/a	n/a	n/a	n/a	utils/practice/ScrambledFW_06F_NE_O.BMP	n/a	n/a	n/a	n/a	n/a	n/a	utils/practice/ScrambledBW_06F_NE_O.BMP	n/a	n/a	n/a	n/a	n/a	n/a	n/a	n/a	n/a	n/a	n/a	n/a	n/a	n/a	n/a	n/a	n/a	n/a	n/a	n/a	n/a	n/a	n/a	n/a	n/a	n/a	n/a	n/a	23	1	2023-02-23_15h49.35.893	test_final	2022.2.4	60.12773537469888	n/a
NimStim_Database/Images/06F_NE_O.BMP	utils/practice/ScrambledFW_06F_NE_O.BMP	utils/practice/ScrambledBW_06F_NE_O.BMP	utils/practice/fake_prac2.jpg	utils/practice/real_prac15.jpg	n/a	n/a	n/a	n/a	n/a	0.0	10.0	10.0	2.0	n/a	n/a	n/a	n/a	n/a	n/a	n/a	n/a	0.0	0.0	0.0	0.0	n/a	n/a	n/a	n/a	n/a	n/a	n/a	n/a	n/a	n/a	n/a	n/a	n/a	n/a	n/a	n/a	n/a	n/a	n/a	n/a	n/a	n/a	n/a	n/a	n/a	n/a	n/a	n/a	n/a	n/a	n/a	n/a	n/a	n/a	n/a	n/a	n/a	n/a	n/a	n/a	n/a	n/a	n/a	n/a	n/a	n/a	n/a	483.3989613000304	483.3989613000304	4.0	0.666472899960354	484.0982309000101	484.0982309000101	484.0982309000101	484.0982309000101	484.0982309000101	484.0982309000101	1.0	0.2343109000357799	n/a	n/a	n/a	n/a	n/a	n/a	n/a	n/a	n/a	n/a	n/a	n/a	n/a	n/a	n/a	n/a	n/a	n/a	n/a	n/a	n/a	n/a	n/a	n/a	n/a	n/a	n/a	n/a	n/a	utils/practice/ScrambledFW_06F_NE_O.BMP	n/a	n/a	n/a	n/a	n/a	n/a	utils/practice/ScrambledBW_06F_NE_O.BMP	n/a	n/a	n/a	n/a	n/a	n/a	n/a	n/a	n/a	n/a	n/a	n/a	n/a	n/a	n/a	n/a	n/a	n/a	n/a	n/a	n/a	n/a	n/a	n/a	n/a	n/a	n/a	n/a	23	1	2023-02-23_15h49.35.893	test_final	2022.2.4	60.12773537469888	n/a
NimStim_Database/Images/06F_NE_O.BMP	utils/practice/ScrambledFW_06F_NE_O.BMP	utils/practice/ScrambledBW_06F_NE_O.BMP	utils/practice/fake_prac2.jpg	utils/practice/real_prac15.jpg	n/a	n/a	n/a	n/a	n/a	0.0	10.0	10.0	2.0	n/a	n/a	n/a	n/a	n/a	n/a	n/a	n/a	n/a	n/a	n/a	n/a	n/a	n/a	n/a	n/a	n/a	n/a	n/a	n/a	n/a	n/a	n/a	n/a	n/a	n/a	n/a	n/a	n/a	n/a	n/a	n/a	n/a	n/a	n/a	n/a	n/a	n/a	n/a	n/a	n/a	n/a	n/a	n/a	n/a	n/a	n/a	n/a	n/a	n/a	n/a	n/a	n/a	n/a	n/a	n/a	n/a	n/a	n/a	n/a	n/a	n/a	n/a	n/a	n/a	n/a	n/a	n/a	n/a	n/a	n/a	484.3645438000094	n/a	n/a	n/a	n/a	n/a	n/a	n/a	n/a	n/a	n/a	n/a	n/a	n/a	n/a	n/a	n/a	n/a	n/a	n/a	n/a	n/a	n/a	n/a	n/a	n/a	n/a	n/a	n/a	utils/practice/ScrambledFW_06F_NE_O.BMP	n/a	n/a	n/a	n/a	n/a	n/a	utils/practice/ScrambledBW_06F_NE_O.BMP	n/a	n/a	n/a	n/a	n/a	n/a	n/a	n/a	n/a	n/a	n/a	n/a	n/a	n/a	n/a	n/a	n/a	n/a	n/a	n/a	n/a	n/a	n/a	n/a	n/a	n/a	n/a	n/a	23	1	2023-02-23_15h49.35.893	test_final	2022.2.4	60.12773537469888	n/a
NimStim_Database/Images/15F_NE_O.BMP	utils/practice/ScrambledFW_08F_NE_O.BMP	utils/practice/ScrambledBW_08F_NE_O.BMP	utils/practice/real_prac4.jpg	utils/practice/fake_prac12.jpg	n/a	n/a	n/a	n/a	n/a	0.0	11.0	11.0	3.0	0.0	0.0	0.0	0.0	n/a	n/a	n/a	n/a	n/a	n/a	n/a	n/a	n/a	n/a	n/a	n/a	n/a	n/a	n/a	n/a	n/a	n/a	n/a	n/a	n/a	n/a	n/a	n/a	n/a	n/a	n/a	n/a	n/a	n/a	n/a	n/a	n/a	n/a	n/a	n/a	n/a	n/a	n/a	n/a	n/a	n/a	486.37879879999673	488.4123696000315	2.03	n/a	n/a	n/a	n/a	n/a	n/a	n/a	n/a	n/a	n/a	n/a	n/a	n/a	n/a	n/a	n/a	n/a	n/a	n/a	n/a	n/a	n/a	n/a	n/a	n/a	n/a	n/a	488.4123696000315	488.5430917000049	488.5430917000049	488.5785994000034	488.5785994000034	488.64124399999855	488.64124399999855	488.64124399999855	488.64124399999855	488.64124399999855	488.64124399999855	488.64124399999855	right	n/a	n/a	n/a	n/a	0.6041715999599546	489.2757253000164	490.2745827999897	n/a	n/a	n/a	n/a	utils/practice/ScrambledFW_08F_NE_O.BMP	n/a	n/a	n/a	n/a	n/a	n/a	utils/practice/ScrambledBW_08F_NE_O.BMP	n/a	n/a	n/a	n/a	n/a	n/a	n/a	n/a	n/a	n/a	n/a	n/a	n/a	n/a	n/a	n/a	n/a	n/a	n/a	n/a	n/a	n/a	n/a	n/a	n/a	n/a	n/a	n/a	23	1	2023-02-23_15h49.35.893	test_final	2022.2.4	60.12773537469888	n/a
NimStim_Database/Images/15F_NE_O.BMP	utils/practice/ScrambledFW_08F_NE_O.BMP	utils/practice/ScrambledBW_08F_NE_O.BMP	utils/practice/real_prac4.jpg	utils/practice/fake_prac12.jpg	n/a	n/a	n/a	n/a	n/a	0.0	11.0	11.0	3.0	n/a	n/a	n/a	n/a	n/a	n/a	n/a	n/a	0.0	0.0	0.0	0.0	n/a	n/a	n/a	n/a	n/a	n/a	n/a	n/a	n/a	n/a	n/a	n/a	n/a	n/a	n/a	n/a	n/a	n/a	n/a	n/a	n/a	n/a	n/a	n/a	n/a	n/a	n/a	n/a	n/a	n/a	n/a	n/a	n/a	n/a	n/a	n/a	n/a	n/a	n/a	n/a	n/a	n/a	n/a	n/a	n/a	n/a	n/a	490.2745827999897	490.2745827999897	4.0	0.5996516000013798	490.8905933999922	490.8905933999922	490.8905933999922	490.8905933999922	490.8905933999922	490.8905933999922	1.0	0.2484504000167362	n/a	n/a	n/a	n/a	n/a	n/a	n/a	n/a	n/a	n/a	n/a	n/a	n/a	n/a	n/a	n/a	n/a	n/a	n/a	n/a	n/a	n/a	n/a	n/a	n/a	n/a	n/a	n/a	n/a	utils/practice/ScrambledFW_08F_NE_O.BMP	n/a	n/a	n/a	n/a	n/a	n/a	utils/practice/ScrambledBW_08F_NE_O.BMP	n/a	n/a	n/a	n/a	n/a	n/a	n/a	n/a	n/a	n/a	n/a	n/a	n/a	n/a	n/a	n/a	n/a	n/a	n/a	n/a	n/a	n/a	n/a	n/a	n/a	n/a	n/a	n/a	23	1	2023-02-23_15h49.35.893	test_final	2022.2.4	60.12773537469888	n/a
NimStim_Database/Images/15F_NE_O.BMP	utils/practice/ScrambledFW_08F_NE_O.BMP	utils/practice/ScrambledBW_08F_NE_O.BMP	utils/practice/real_prac4.jpg	utils/practice/fake_prac12.jpg	n/a	n/a	n/a	n/a	n/a	0.0	11.0	11.0	3.0	n/a	n/a	n/a	n/a	n/a	n/a	n/a	n/a	n/a	n/a	n/a	n/a	n/a	n/a	n/a	n/a	n/a	n/a	n/a	n/a	n/a	n/a	n/a	n/a	n/a	n/a	n/a	n/a	n/a	n/a	n/a	n/a	n/a	n/a	n/a	n/a	n/a	n/a	n/a	n/a	n/a	n/a	n/a	n/a	n/a	n/a	n/a	n/a	n/a	n/a	n/a	n/a	n/a	n/a	n/a	n/a	n/a	n/a	n/a	n/a	n/a	n/a	n/a	n/a	n/a	n/a	n/a	n/a	n/a	n/a	n/a	491.15694220003206	n/a	n/a	n/a	n/a	n/a	n/a	n/a	n/a	n/a	n/a	n/a	n/a	n/a	n/a	n/a	n/a	n/a	n/a	n/a	n/a	n/a	n/a	n/a	n/a	n/a	n/a	n/a	n/a	utils/practice/ScrambledFW_08F_NE_O.BMP	n/a	n/a	n/a	n/a	n/a	n/a	utils/practice/ScrambledBW_08F_NE_O.BMP	n/a	n/a	n/a	n/a	n/a	n/a	n/a	n/a	n/a	n/a	n/a	n/a	n/a	n/a	n/a	n/a	n/a	n/a	n/a	n/a	n/a	n/a	n/a	n/a	n/a	n/a	n/a	n/a	23	1	2023-02-23_15h49.35.893	test_final	2022.2.4	60.12773537469888	n/a
NimStim_Database/Images/01F_NE_O.BMP	utils/practice/ScrambledFW_28M_NE_O.BMP	utils/practice/ScrambledBW_28M_NE_O.BMP	utils/practice/fake_prac14.jpg	utils/practice/fake_prac8.jpg	n/a	n/a	n/a	n/a	n/a	0.0	12.0	12.0	12.0	0.0	0.0	0.0	0.0	n/a	n/a	n/a	n/a	n/a	n/a	n/a	n/a	n/a	n/a	n/a	n/a	n/a	n/a	n/a	n/a	n/a	n/a	n/a	n/a	n/a	n/a	n/a	n/a	n/a	n/a	n/a	n/a	n/a	n/a	n/a	n/a	n/a	n/a	n/a	n/a	n/a	n/a	n/a	n/a	n/a	n/a	493.1715440999833	495.2056007999927	2.03	n/a	n/a	n/a	n/a	n/a	n/a	n/a	n/a	n/a	n/a	n/a	n/a	n/a	n/a	n/a	n/a	n/a	n/a	n/a	n/a	n/a	n/a	n/a	n/a	n/a	n/a	n/a	495.2056007999927	495.3523952999967	495.3523952999967	495.3879542000359	495.3879542000359	495.4552405999857	495.4552405999857	495.4552405999857	495.4552405999857	495.4552405999857	495.4552405999857	495.4552405999857	right	n/a	n/a	n/a	n/a	0.5726912999525666	496.0514785000123	n/a	n/a	n/a	n/a	n/a	utils/practice/ScrambledFW_28M_NE_O.BMP	n/a	n/a	n/a	n/a	n/a	n/a	utils/practice/ScrambledBW_28M_NE_O.BMP	n/a	n/a	n/a	n/a	n/a	n/a	n/a	n/a	n/a	n/a	n/a	n/a	n/a	n/a	n/a	n/a	n/a	n/a	n/a	n/a	n/a	n/a	n/a	n/a	n/a	n/a	n/a	n/a	23	1	2023-02-23_15h49.35.893	test_final	2022.2.4	60.12773537469888	n/a
NimStim_Database/Images/01F_NE_O.BMP	utils/practice/ScrambledFW_28M_NE_O.BMP	utils/practice/ScrambledBW_28M_NE_O.BMP	utils/practice/fake_prac14.jpg	utils/practice/fake_prac8.jpg	n/a	n/a	n/a	n/a	n/a	0.0	12.0	12.0	12.0	n/a	n/a	n/a	n/a	n/a	n/a	n/a	n/a	0.0	0.0	0.0	0.0	n/a	n/a	n/a	n/a	n/a	n/a	n/a	n/a	n/a	n/a	n/a	n/a	n/a	n/a	n/a	n/a	n/a	n/a	n/a	n/a	n/a	n/a	n/a	n/a	n/a	n/a	n/a	n/a	n/a	n/a	n/a	n/a	n/a	n/a	n/a	n/a	n/a	n/a	n/a	n/a	n/a	n/a	n/a	n/a	n/a	n/a	n/a	497.0670592000242	497.0670592000242	4.0	0.4939218999934383	497.5831211000332	497.5831211000332	497.5831211000332	497.5831211000332	497.5831211000332	497.5831211000332	4.0	0.2267482000170275	n/a	n/a	n/a	n/a	n/a	n/a	n/a	n/a	n/a	n/a	n/a	n/a	n/a	n/a	n/a	n/a	n/a	n/a	n/a	n/a	n/a	n/a	n/a	n/a	n/a	n/a	n/a	n/a	n/a	utils/practice/ScrambledFW_28M_NE_O.BMP	n/a	n/a	n/a	n/a	n/a	n/a	utils/practice/ScrambledBW_28M_NE_O.BMP	n/a	n/a	n/a	n/a	n/a	n/a	n/a	n/a	n/a	n/a	n/a	n/a	n/a	n/a	n/a	n/a	n/a	n/a	n/a	n/a	n/a	n/a	n/a	n/a	n/a	n/a	n/a	n/a	23	1	2023-02-23_15h49.35.893	test_final	2022.2.4	60.12773537469888	n/a
NimStim_Database/Images/01F_NE_O.BMP	utils/practice/ScrambledFW_28M_NE_O.BMP	utils/practice/ScrambledBW_28M_NE_O.BMP	utils/practice/fake_prac14.jpg	utils/practice/fake_prac8.jpg	n/a	n/a	n/a	n/a	n/a	0.0	12.0	12.0	12.0	n/a	n/a	n/a	n/a	n/a	n/a	n/a	n/a	n/a	n/a	n/a	n/a	n/a	n/a	n/a	n/a	n/a	n/a	n/a	n/a	n/a	n/a	n/a	n/a	n/a	n/a	n/a	n/a	n/a	n/a	n/a	n/a	n/a	n/a	n/a	n/a	n/a	n/a	n/a	n/a	n/a	n/a	n/a	n/a	n/a	n/a	n/a	n/a	n/a	n/a	n/a	n/a	n/a	n/a	n/a	n/a	n/a	n/a	n/a	n/a	n/a	n/a	n/a	n/a	n/a	n/a	n/a	n/a	n/a	n/a	n/a	497.8330745000276	n/a	n/a	n/a	n/a	n/a	n/a	n/a	n/a	n/a	n/a	n/a	n/a	n/a	n/a	n/a	n/a	n/a	n/a	n/a	n/a	n/a	n/a	n/a	n/a	n/a	n/a	n/a	n/a	utils/practice/ScrambledFW_28M_NE_O.BMP	n/a	n/a	n/a	n/a	n/a	n/a	utils/practice/ScrambledBW_28M_NE_O.BMP	n/a	n/a	n/a	n/a	n/a	n/a	n/a	n/a	n/a	n/a	n/a	n/a	n/a	n/a	n/a	n/a	n/a	n/a	n/a	n/a	n/a	n/a	n/a	n/a	n/a	n/a	n/a	n/a	23	1	2023-02-23_15h49.35.893	test_final	2022.2.4	60.12773537469888	n/a
NimStim_Database/Images/33M_NE_C.BMP	utils/practice/ScrambledFW_25M_NE_C.BMP	utils/practice/ScrambledBW_25M_NE_C.BMP	utils/practice/fake_prac4.jpg	utils/practice/fake_prac5.jpg	n/a	n/a	n/a	n/a	n/a	0.0	13.0	13.0	10.0	0.0	0.0	0.0	0.0	n/a	n/a	n/a	n/a	n/a	n/a	n/a	n/a	n/a	n/a	n/a	n/a	n/a	n/a	n/a	n/a	n/a	n/a	n/a	n/a	n/a	n/a	n/a	n/a	n/a	n/a	n/a	n/a	n/a	n/a	n/a	n/a	n/a	n/a	n/a	n/a	n/a	n/a	n/a	n/a	n/a	n/a	499.8475833000266	501.9805777000147	2.119999999999997	n/a	n/a	n/a	n/a	n/a	n/a	n/a	n/a	n/a	n/a	n/a	n/a	n/a	n/a	n/a	n/a	n/a	n/a	n/a	n/a	n/a	n/a	n/a	n/a	n/a	n/a	n/a	501.9805777000147	502.1282611000352	502.1282611000352	502.1636616000324	502.1636616000324	502.2299691000371	502.2299691000371	502.2299691000371	502.2299691000371	502.2299691000371	502.2299691000371	502.2299691000371	left	n/a	n/a	n/a	n/a	0.5674246000126004	502.8276544000255	n/a	n/a	n/a	n/a	n/a	utils/practice/ScrambledFW_25M_NE_C.BMP	n/a	n/a	n/a	n/a	n/a	n/a	utils/practice/ScrambledBW_25M_NE_C.BMP	n/a	n/a	n/a	n/a	n/a	n/a	n/a	n/a	n/a	n/a	n/a	n/a	n/a	n/a	n/a	n/a	n/a	n/a	n/a	n/a	n/a	n/a	n/a	n/a	n/a	n/a	n/a	n/a	23	1	2023-02-23_15h49.35.893	test_final	2022.2.4	60.12773537469888	n/a
NimStim_Database/Images/33M_NE_C.BMP	utils/practice/ScrambledFW_25M_NE_C.BMP	utils/practice/ScrambledBW_25M_NE_C.BMP	utils/practice/fake_prac4.jpg	utils/practice/fake_prac5.jpg	n/a	n/a	n/a	n/a	n/a	0.0	13.0	13.0	10.0	n/a	n/a	n/a	n/a	n/a	n/a	n/a	n/a	0.0	0.0	0.0	0.0	n/a	n/a	n/a	n/a	n/a	n/a	n/a	n/a	n/a	n/a	n/a	n/a	n/a	n/a	n/a	n/a	n/a	n/a	n/a	n/a	n/a	n/a	n/a	n/a	n/a	n/a	n/a	n/a	n/a	n/a	n/a	n/a	n/a	n/a	n/a	n/a	n/a	n/a	n/a	n/a	n/a	n/a	n/a	n/a	n/a	n/a	n/a	503.84324349998496	503.84324349998496	4.0	0.3833054999704472	504.2593635999947	504.2593635999947	504.2593635999947	504.2593635999947	504.2593635999947	504.2593635999947	1.0	0.2006016999948769	n/a	n/a	n/a	n/a	n/a	n/a	n/a	n/a	n/a	n/a	n/a	n/a	n/a	n/a	n/a	n/a	n/a	n/a	n/a	n/a	n/a	n/a	n/a	n/a	n/a	n/a	n/a	n/a	n/a	utils/practice/ScrambledFW_25M_NE_C.BMP	n/a	n/a	n/a	n/a	n/a	n/a	utils/practice/ScrambledBW_25M_NE_C.BMP	n/a	n/a	n/a	n/a	n/a	n/a	n/a	n/a	n/a	n/a	n/a	n/a	n/a	n/a	n/a	n/a	n/a	n/a	n/a	n/a	n/a	n/a	n/a	n/a	n/a	n/a	n/a	n/a	23	1	2023-02-23_15h49.35.893	test_final	2022.2.4	60.12773537469888	n/a
NimStim_Database/Images/33M_NE_C.BMP	utils/practice/ScrambledFW_25M_NE_C.BMP	utils/practice/ScrambledBW_25M_NE_C.BMP	utils/practice/fake_prac4.jpg	utils/practice/fake_prac5.jpg	n/a	n/a	n/a	n/a	n/a	0.0	13.0	13.0	10.0	n/a	n/a	n/a	n/a	n/a	n/a	n/a	n/a	n/a	n/a	n/a	n/a	n/a	n/a	n/a	n/a	n/a	n/a	n/a	n/a	n/a	n/a	n/a	n/a	n/a	n/a	n/a	n/a	n/a	n/a	n/a	n/a	n/a	n/a	n/a	n/a	n/a	n/a	n/a	n/a	n/a	n/a	n/a	n/a	n/a	n/a	n/a	n/a	n/a	n/a	n/a	n/a	n/a	n/a	n/a	n/a	n/a	n/a	n/a	n/a	n/a	n/a	n/a	n/a	n/a	n/a	n/a	n/a	n/a	n/a	n/a	504.4924969000276	n/a	n/a	n/a	n/a	n/a	n/a	n/a	n/a	n/a	n/a	n/a	n/a	n/a	n/a	n/a	n/a	n/a	n/a	n/a	n/a	n/a	n/a	n/a	n/a	n/a	n/a	n/a	n/a	utils/practice/ScrambledFW_25M_NE_C.BMP	n/a	n/a	n/a	n/a	n/a	n/a	utils/practice/ScrambledBW_25M_NE_C.BMP	n/a	n/a	n/a	n/a	n/a	n/a	n/a	n/a	n/a	n/a	n/a	n/a	n/a	n/a	n/a	n/a	n/a	n/a	n/a	n/a	n/a	n/a	n/a	n/a	n/a	n/a	n/a	n/a	23	1	2023-02-23_15h49.35.893	test_final	2022.2.4	60.12773537469888	n/a
NimStim_Database/Images/11F_NE_C.BMP	utils/practice/ScrambledFW_37M_NE_C.BMP	utils/practice/ScrambledBW_37M_NE_C.BMP	utils/practice/real_prac16.jpg	utils/practice/fake_prac1.jpg	n/a	n/a	n/a	n/a	n/a	0.0	14.0	14.0	14.0	0.0	0.0	0.0	0.0	n/a	n/a	n/a	n/a	n/a	n/a	n/a	n/a	n/a	n/a	n/a	n/a	n/a	n/a	n/a	n/a	n/a	n/a	n/a	n/a	n/a	n/a	n/a	n/a	n/a	n/a	n/a	n/a	n/a	n/a	n/a	n/a	n/a	n/a	n/a	n/a	n/a	n/a	n/a	n/a	n/a	n/a	506.5068572000018	508.6398681999999	2.129999999999997	n/a	n/a	n/a	n/a	n/a	n/a	n/a	n/a	n/a	n/a	n/a	n/a	n/a	n/a	n/a	n/a	n/a	n/a	n/a	n/a	n/a	n/a	n/a	n/a	n/a	n/a	n/a	508.6398681999999	508.7543733000057	508.7543733000057	508.7896864000359	508.7896864000359	508.8500824000221	508.8500824000221	508.8500824000221	508.8500824000221	508.8500824000221	508.8500824000221	508.8500824000221	right	n/a	n/a	n/a	n/a	0.4269295000121929	509.30354920000536	n/a	n/a	n/a	n/a	n/a	utils/practice/ScrambledFW_37M_NE_C.BMP	n/a	n/a	n/a	n/a	n/a	n/a	utils/practice/ScrambledBW_37M_NE_C.BMP	n/a	n/a	n/a	n/a	n/a	n/a	n/a	n/a	n/a	n/a	n/a	n/a	n/a	n/a	n/a	n/a	n/a	n/a	n/a	n/a	n/a	n/a	n/a	n/a	n/a	n/a	n/a	n/a	23	1	2023-02-23_15h49.35.893	test_final	2022.2.4	60.12773537469888	n/a
NimStim_Database/Images/11F_NE_C.BMP	utils/practice/ScrambledFW_37M_NE_C.BMP	utils/practice/ScrambledBW_37M_NE_C.BMP	utils/practice/real_prac16.jpg	utils/practice/fake_prac1.jpg	n/a	n/a	n/a	n/a	n/a	0.0	14.0	14.0	14.0	n/a	n/a	n/a	n/a	n/a	n/a	n/a	n/a	0.0	0.0	0.0	0.0	n/a	n/a	n/a	n/a	n/a	n/a	n/a	n/a	n/a	n/a	n/a	n/a	n/a	n/a	n/a	n/a	n/a	n/a	n/a	n/a	n/a	n/a	n/a	n/a	n/a	n/a	n/a	n/a	n/a	n/a	n/a	n/a	n/a	n/a	n/a	n/a	n/a	n/a	n/a	n/a	n/a	n/a	n/a	n/a	n/a	n/a	n/a	510.3193313000375	510.3193313000375	4.0	0.149662299954798	510.4857404000359	510.4857404000359	510.4857404000359	510.4857404000359	510.4857404000359	510.4857404000359	1.0	0.2094986999873072	n/a	n/a	n/a	n/a	n/a	n/a	n/a	n/a	n/a	n/a	n/a	n/a	n/a	n/a	n/a	n/a	n/a	n/a	n/a	n/a	n/a	n/a	n/a	n/a	n/a	n/a	n/a	n/a	n/a	utils/practice/ScrambledFW_37M_NE_C.BMP	n/a	n/a	n/a	n/a	n/a	n/a	utils/practice/ScrambledBW_37M_NE_C.BMP	n/a	n/a	n/a	n/a	n/a	n/a	n/a	n/a	n/a	n/a	n/a	n/a	n/a	n/a	n/a	n/a	n/a	n/a	n/a	n/a	n/a	n/a	n/a	n/a	n/a	n/a	n/a	n/a	23	1	2023-02-23_15h49.35.893	test_final	2022.2.4	60.12773537469888	n/a
NimStim_Database/Images/11F_NE_C.BMP	utils/practice/ScrambledFW_37M_NE_C.BMP	utils/practice/ScrambledBW_37M_NE_C.BMP	utils/practice/real_prac16.jpg	utils/practice/fake_prac1.jpg	n/a	n/a	n/a	n/a	n/a	0.0	14.0	14.0	14.0	n/a	n/a	n/a	n/a	n/a	n/a	n/a	n/a	n/a	n/a	n/a	n/a	n/a	n/a	n/a	n/a	n/a	n/a	n/a	n/a	n/a	n/a	n/a	n/a	n/a	n/a	n/a	n/a	n/a	n/a	n/a	n/a	n/a	n/a	n/a	n/a	n/a	n/a	n/a	n/a	n/a	n/a	n/a	n/a	n/a	n/a	n/a	n/a	n/a	n/a	n/a	n/a	n/a	n/a	n/a	n/a	n/a	n/a	n/a	n/a	n/a	n/a	n/a	n/a	n/a	n/a	n/a	n/a	n/a	n/a	n/a	510.7188546000398	n/a	n/a	n/a	n/a	n/a	n/a	n/a	n/a	n/a	n/a	n/a	n/a	n/a	n/a	n/a	n/a	n/a	n/a	n/a	n/a	n/a	n/a	n/a	n/a	n/a	n/a	n/a	n/a	utils/practice/ScrambledFW_37M_NE_C.BMP	n/a	n/a	n/a	n/a	n/a	n/a	utils/practice/ScrambledBW_37M_NE_C.BMP	n/a	n/a	n/a	n/a	n/a	n/a	n/a	n/a	n/a	n/a	n/a	n/a	n/a	n/a	n/a	n/a	n/a	n/a	n/a	n/a	n/a	n/a	n/a	n/a	n/a	n/a	n/a	n/a	23	1	2023-02-23_15h49.35.893	test_final	2022.2.4	60.12773537469888	n/a
NimStim_Database/Images/37M_NE_C.BMP	utils/practice/ScrambledFW_24M_NE_C.BMP	utils/practice/ScrambledBW_24M_NE_C.BMP	utils/practice/real_prac7.jpg	utils/practice/real_prac14.jpg	n/a	n/a	n/a	n/a	n/a	0.0	15.0	15.0	9.0	0.0	0.0	0.0	0.0	n/a	n/a	n/a	n/a	n/a	n/a	n/a	n/a	n/a	n/a	n/a	n/a	n/a	n/a	n/a	n/a	n/a	n/a	n/a	n/a	n/a	n/a	n/a	n/a	n/a	n/a	n/a	n/a	n/a	n/a	n/a	n/a	n/a	n/a	n/a	n/a	n/a	n/a	n/a	n/a	n/a	n/a	512.7333530000178	514.8497449000133	2.1099999999999977	n/a	n/a	n/a	n/a	n/a	n/a	n/a	n/a	n/a	n/a	n/a	n/a	n/a	n/a	n/a	n/a	n/a	n/a	n/a	n/a	n/a	n/a	n/a	n/a	n/a	n/a	n/a	514.8497449000133	514.9673785000341	514.9673785000341	514.9997108000098	514.9997108000098	515.062527000031	515.062527000031	515.062527000031	515.062527000031	515.062527000031	515.062527000031	515.062527000031	right	n/a	n/a	n/a	n/a	0.41578889999073	515.4969766000286	516.4959345000098	n/a	n/a	n/a	n/a	utils/practice/ScrambledFW_24M_NE_C.BMP	n/a	n/a	n/a	n/a	n/a	n/a	utils/practice/ScrambledBW_24M_NE_C.BMP	n/a	n/a	n/a	n/a	n/a	n/a	n/a	n/a	n/a	n/a	n/a	n/a	n/a	n/a	n/a	n/a	n/a	n/a	n/a	n/a	n/a	n/a	n/a	n/a	n/a	n/a	n/a	n/a	23	1	2023-02-23_15h49.35.893	test_final	2022.2.4	60.12773537469888	n/a
NimStim_Database/Images/37M_NE_C.BMP	utils/practice/ScrambledFW_24M_NE_C.BMP	utils/practice/ScrambledBW_24M_NE_C.BMP	utils/practice/real_prac7.jpg	utils/practice/real_prac14.jpg	n/a	n/a	n/a	n/a	n/a	0.0	15.0	15.0	9.0	n/a	n/a	n/a	n/a	n/a	n/a	n/a	n/a	0.0	0.0	0.0	0.0	n/a	n/a	n/a	n/a	n/a	n/a	n/a	n/a	n/a	n/a	n/a	n/a	n/a	n/a	n/a	n/a	n/a	n/a	n/a	n/a	n/a	n/a	n/a	n/a	n/a	n/a	n/a	n/a	n/a	n/a	n/a	n/a	n/a	n/a	n/a	n/a	n/a	n/a	n/a	n/a	n/a	n/a	n/a	n/a	n/a	n/a	n/a	516.4959345000098	516.4959345000098	4.0	0.6447524999966845	517.161505200027	517.161505200027	517.161505200027	517.161505200027	517.161505200027	517.161505200027	4.0	0.2312116000102833	n/a	n/a	n/a	n/a	n/a	n/a	n/a	n/a	n/a	n/a	n/a	n/a	n/a	n/a	n/a	n/a	n/a	n/a	n/a	n/a	n/a	n/a	n/a	n/a	n/a	n/a	n/a	n/a	n/a	utils/practice/ScrambledFW_24M_NE_C.BMP	n/a	n/a	n/a	n/a	n/a	n/a	utils/practice/ScrambledBW_24M_NE_C.BMP	n/a	n/a	n/a	n/a	n/a	n/a	n/a	n/a	n/a	n/a	n/a	n/a	n/a	n/a	n/a	n/a	n/a	n/a	n/a	n/a	n/a	n/a	n/a	n/a	n/a	n/a	n/a	n/a	23	1	2023-02-23_15h49.35.893	test_final	2022.2.4	60.12773537469888	n/a
NimStim_Database/Images/37M_NE_C.BMP	utils/practice/ScrambledFW_24M_NE_C.BMP	utils/practice/ScrambledBW_24M_NE_C.BMP	utils/practice/real_prac7.jpg	utils/practice/real_prac14.jpg	n/a	n/a	n/a	n/a	n/a	0.0	15.0	15.0	9.0	n/a	n/a	n/a	n/a	n/a	n/a	n/a	n/a	n/a	n/a	n/a	n/a	n/a	n/a	n/a	n/a	n/a	n/a	n/a	n/a	n/a	n/a	n/a	n/a	n/a	n/a	n/a	n/a	n/a	n/a	n/a	n/a	n/a	n/a	n/a	n/a	n/a	n/a	n/a	n/a	n/a	n/a	n/a	n/a	n/a	n/a	n/a	n/a	n/a	n/a	n/a	n/a	n/a	n/a	n/a	n/a	n/a	n/a	n/a	n/a	n/a	n/a	n/a	n/a	n/a	n/a	n/a	n/a	n/a	n/a	n/a	517.4117182000191	n/a	n/a	n/a	n/a	n/a	n/a	n/a	n/a	n/a	n/a	n/a	n/a	n/a	n/a	n/a	n/a	n/a	n/a	n/a	n/a	n/a	n/a	n/a	n/a	n/a	n/a	n/a	n/a	utils/practice/ScrambledFW_24M_NE_C.BMP	n/a	n/a	n/a	n/a	n/a	n/a	utils/practice/ScrambledBW_24M_NE_C.BMP	n/a	n/a	n/a	n/a	n/a	n/a	n/a	n/a	n/a	n/a	n/a	n/a	n/a	n/a	n/a	n/a	n/a	n/a	n/a	n/a	n/a	n/a	n/a	n/a	n/a	n/a	n/a	n/a	23	1	2023-02-23_15h49.35.893	test_final	2022.2.4	60.12773537469888	n/a
n/a	n/a	n/a	n/a	n/a	n/a	n/a	n/a	n/a	n/a	n/a	n/a	n/a	n/a	n/a	n/a	n/a	n/a	n/a	n/a	n/a	n/a	n/a	n/a	n/a	n/a	n/a	n/a	n/a	n/a	n/a	n/a	n/a	n/a	n/a	n/a	n/a	n/a	n/a	n/a	n/a	n/a	n/a	n/a	n/a	n/a	n/a	n/a	n/a	n/a	n/a	n/a	n/a	n/a	n/a	n/a	n/a	n/a	n/a	n/a	n/a	n/a	n/a	n/a	n/a	n/a	n/a	n/a	n/a	n/a	n/a	n/a	n/a	n/a	n/a	n/a	n/a	n/a	n/a	n/a	n/a	n/a	n/a	n/a	n/a	n/a	n/a	n/a	n/a	n/a	n/a	n/a	n/a	n/a	n/a	n/a	n/a	n/a	n/a	n/a	n/a	n/a	n/a	n/a	n/a	n/a	n/a	n/a	n/a	n/a	519.4260005000397	space	100.04478039999958	n/a	n/a	n/a	n/a	n/a	n/a	n/a	n/a	n/a	n/a	n/a	n/a	n/a	n/a	n/a	n/a	n/a	n/a	n/a	n/a	n/a	n/a	n/a	n/a	n/a	n/a	n/a	n/a	n/a	n/a	n/a	n/a	n/a	n/a	n/a	n/a	n/a	23	1	2023-02-23_15h49.35.893	test_final	2022.2.4	60.12773537469888	n/a
n/a	utils/nb_masks/EmoScrambledFW_25M_AN_O.BMP	utils/nb_masks/EmoScrambledBW_25M_AN_O.BMP	n/a	n/a	2.0	n/a	n/a	n/a	n/a	n/a	n/a	n/a	n/a	n/a	n/a	n/a	n/a	n/a	n/a	n/a	n/a	n/a	n/a	n/a	n/a	0.0	0.0	0.0	1.0	0.0	0.0	0.0	0.0	n/a	n/a	n/a	n/a	0.0	0.0	0.0	0.0	n/a	n/a	n/a	n/a	n/a	n/a	n/a	n/a	n/a	n/a	n/a	n/a	n/a	n/a	n/a	n/a	n/a	n/a	619.499146200018	621.7466934000258	2.239999999999995	n/a	n/a	n/a	n/a	n/a	n/a	n/a	n/a	n/a	n/a	n/a	n/a	n/a	n/a	n/a	n/a	n/a	n/a	n/a	n/a	n/a	n/a	n/a	n/a	n/a	n/a	n/a	n/a	n/a	n/a	n/a	n/a	n/a	n/a	n/a	n/a	n/a	n/a	n/a	n/a	n/a	n/a	n/a	n/a	n/a	n/a	n/a	n/a	n/a	n/a	3.400025889277458e-06	utils/nb_masks/EmoScrambledFW_25M_AN_O.BMP	0.1498401000280864	9.0	3.900029696524143e-06	0.0242014999967068	NimStim_Database/Images/25M_AN_O.BMP	3.100023604929447e-06	utils/nb_masks/EmoScrambledBW_25M_AN_O.BMP	0.0334277999936603	4.199973773211241e-06	MR2_database/bm11.tif	0.0003961999900639	622.7801827000221	622.7801827000221	space	1.4061952999909408	n/a	n/a	n/a	n/a	n/a	n/a	n/a	n/a	n/a	n/a	n/a	n/a	n/a	n/a	n/a	n/a	n/a	n/a	n/a	n/a	23	1	2023-02-23_15h49.35.893	test_final	2022.2.4	60.12773537469888	n/a
n/a	n/a	n/a	n/a	n/a	2.0	n/a	n/a	n/a	n/a	n/a	n/a	n/a	n/a	n/a	n/a	n/a	n/a	n/a	n/a	n/a	n/a	n/a	n/a	n/a	n/a	0.0	0.0	0.0	1.0	0.0	0.0	0.0	0.0	n/a	n/a	n/a	n/a	n/a	n/a	n/a	n/a	n/a	n/a	n/a	n/a	n/a	n/a	n/a	n/a	n/a	n/a	n/a	n/a	n/a	n/a	n/a	n/a	n/a	n/a	n/a	n/a	n/a	n/a	n/a	n/a	n/a	n/a	n/a	n/a	n/a	n/a	n/a	n/a	n/a	n/a	n/a	n/a	n/a	n/a	n/a	n/a	n/a	n/a	n/a	624.2105717000086	n/a	n/a	n/a	n/a	n/a	n/a	n/a	n/a	n/a	n/a	n/a	n/a	n/a	n/a	n/a	n/a	n/a	n/a	n/a	n/a	n/a	n/a	n/a	n/a	n/a	n/a	n/a	n/a	n/a	n/a	n/a	n/a	n/a	n/a	n/a	n/a	n/a	n/a	n/a	n/a	n/a	n/a	n/a	n/a	n/a	n/a	n/a	n/a	n/a	n/a	n/a	n/a	n/a	n/a	n/a	n/a	n/a	n/a	n/a	n/a	n/a	n/a	n/a	n/a	23	1	2023-02-23_15h49.35.893	test_final	2022.2.4	60.12773537469888	n/a
n/a	utils/nb_masks/EmoScrambledFW_17F_AN_O.BMP	utils/nb_masks/EmoScrambledBW_17F_AN_O.BMP	n/a	n/a	2.0	n/a	n/a	n/a	n/a	n/a	n/a	n/a	n/a	n/a	n/a	n/a	n/a	n/a	n/a	n/a	n/a	n/a	n/a	n/a	n/a	0.0	0.0	0.0	1.0	1.0	0.0	1.0	0.0	0.0	0.0	0.0	0.0	n/a	n/a	n/a	n/a	n/a	n/a	n/a	n/a	n/a	n/a	n/a	n/a	n/a	n/a	n/a	n/a	n/a	n/a	n/a	n/a	n/a	n/a	626.2252726000152	628.3227563999826	2.089999999999998	n/a	n/a	n/a	n/a	n/a	n/a	n/a	n/a	n/a	n/a	n/a	n/a	n/a	n/a	n/a	n/a	n/a	n/a	n/a	n/a	n/a	n/a	n/a	n/a	n/a	n/a	n/a	n/a	n/a	n/a	n/a	n/a	n/a	n/a	n/a	n/a	n/a	n/a	n/a	n/a	n/a	n/a	n/a	n/a	n/a	n/a	n/a	n/a	n/a	n/a	3.700028173625469e-06	utils/nb_masks/EmoScrambledFW_17F_AN_O.BMP	0.1161271000164561	7.0	4.399975296109915e-06	0.0320028999703936	NimStim_Database/Images/17F_AN_O.BMP	3.299966920167208e-06	utils/nb_masks/EmoScrambledBW_17F_AN_O.BMP	0.0331214999896474	4.299974534660578e-06	MR2_database/wf03.tif	0.0004490999854169	n/a	n/a	n/a	n/a	right	0.4913227999932132	629.0417925000074	n/a	n/a	n/a	n/a	n/a	n/a	n/a	n/a	n/a	n/a	n/a	n/a	n/a	n/a	n/a	n/a	n/a	23	1	2023-02-23_15h49.35.893	test_final	2022.2.4	60.12773537469888	n/a
n/a	n/a	n/a	n/a	n/a	2.0	n/a	n/a	n/a	n/a	n/a	n/a	n/a	n/a	n/a	n/a	n/a	n/a	n/a	n/a	n/a	n/a	n/a	n/a	n/a	n/a	0.0	0.0	0.0	1.0	1.0	0.0	1.0	0.0	n/a	n/a	n/a	n/a	n/a	n/a	n/a	n/a	0.0	0.0	0.0	0.0	n/a	n/a	n/a	n/a	n/a	n/a	n/a	n/a	n/a	n/a	n/a	n/a	n/a	n/a	n/a	n/a	n/a	n/a	n/a	n/a	n/a	n/a	n/a	n/a	n/a	n/a	n/a	630.0542740999954	630.0542740999954	1.0	0.8598880000063218	630.9368613000261	630.9368613000261	630.9368613000261	630.9368613000261	630.9368613000261	630.9368613000261	4.0	0.6995507000247017	n/a	n/a	n/a	n/a	n/a	n/a	n/a	n/a	n/a	n/a	n/a	n/a	n/a	n/a	n/a	n/a	n/a	n/a	n/a	n/a	n/a	n/a	n/a	n/a	n/a	n/a	n/a	n/a	n/a	n/a	n/a	n/a	n/a	n/a	n/a	n/a	n/a	n/a	n/a	n/a	n/a	n/a	n/a	n/a	n/a	n/a	n/a	n/a	n/a	n/a	n/a	n/a	n/a	n/a	n/a	n/a	n/a	n/a	n/a	n/a	n/a	n/a	n/a	n/a	n/a	23	1	2023-02-23_15h49.35.893	test_final	2022.2.4	60.12773537469888	n/a
n/a	n/a	n/a	n/a	n/a	2.0	n/a	n/a	n/a	n/a	n/a	n/a	n/a	n/a	n/a	n/a	n/a	n/a	n/a	n/a	n/a	n/a	n/a	n/a	n/a	n/a	0.0	0.0	0.0	1.0	1.0	0.0	1.0	0.0	n/a	n/a	n/a	n/a	n/a	n/a	n/a	n/a	n/a	n/a	n/a	n/a	n/a	n/a	n/a	n/a	n/a	n/a	n/a	n/a	n/a	n/a	n/a	n/a	n/a	n/a	n/a	n/a	n/a	n/a	n/a	n/a	n/a	n/a	n/a	n/a	n/a	n/a	n/a	n/a	n/a	n/a	n/a	n/a	n/a	n/a	n/a	n/a	n/a	n/a	n/a	631.6692102000234	n/a	n/a	n/a	n/a	n/a	n/a	n/a	n/a	n/a	n/a	n/a	n/a	n/a	n/a	n/a	n/a	n/a	n/a	n/a	n/a	n/a	n/a	n/a	n/a	n/a	n/a	n/a	n/a	n/a	n/a	n/a	n/a	n/a	n/a	n/a	n/a	n/a	n/a	n/a	n/a	n/a	n/a	n/a	n/a	n/a	n/a	n/a	n/a	n/a	n/a	n/a	n/a	n/a	n/a	n/a	n/a	n/a	n/a	n/a	n/a	n/a	n/a	n/a	n/a	23	1	2023-02-23_15h49.35.893	test_final	2022.2.4	60.12773537469888	n/a
n/a	utils/nb_masks/EmoScrambledFW_18F_AN_O.BMP	utils/nb_masks/EmoScrambledBW_18F_AN_O.BMP	n/a	n/a	2.0	n/a	n/a	n/a	n/a	n/a	n/a	n/a	n/a	n/a	n/a	n/a	n/a	n/a	n/a	n/a	n/a	n/a	n/a	n/a	n/a	0.0	0.0	0.0	1.0	2.0	0.0	2.0	0.0	n/a	n/a	n/a	n/a	0.0	0.0	0.0	0.0	n/a	n/a	n/a	n/a	n/a	n/a	n/a	n/a	n/a	n/a	n/a	n/a	n/a	n/a	n/a	n/a	n/a	n/a	633.6835607000394	635.8642057999969	2.1699999999999964	n/a	n/a	n/a	n/a	n/a	n/a	n/a	n/a	n/a	n/a	n/a	n/a	n/a	n/a	n/a	n/a	n/a	n/a	n/a	n/a	n/a	n/a	n/a	n/a	n/a	n/a	n/a	n/a	n/a	n/a	n/a	n/a	n/a	n/a	n/a	n/a	n/a	n/a	n/a	n/a	n/a	n/a	n/a	n/a	n/a	n/a	n/a	n/a	n/a	n/a	4.099973011761904e-06	utils/nb_masks/EmoScrambledFW_18F_AN_O.BMP	0.1494133999804034	9.0	3.999972250312567e-06	0.0313510000123642	NimStim_Database/Images/18F_AN_O.BMP	6.199989002197981e-06	utils/nb_masks/EmoScrambledBW_18F_AN_O.BMP	0.0334150000126101	5.100038833916187e-06	MR2_database/bm08.tif	0.0004269000492058	636.8803954999894	636.8803954999894	space	0.1476458000252023	n/a	n/a	n/a	n/a	n/a	n/a	n/a	n/a	n/a	n/a	n/a	n/a	n/a	n/a	n/a	n/a	n/a	n/a	n/a	n/a	23	1	2023-02-23_15h49.35.893	test_final	2022.2.4	60.12773537469888	n/a
n/a	n/a	n/a	n/a	n/a	2.0	n/a	n/a	n/a	n/a	n/a	n/a	n/a	n/a	n/a	n/a	n/a	n/a	n/a	n/a	n/a	n/a	n/a	n/a	n/a	n/a	0.0	0.0	0.0	1.0	2.0	0.0	2.0	0.0	n/a	n/a	n/a	n/a	n/a	n/a	n/a	n/a	n/a	n/a	n/a	n/a	n/a	n/a	n/a	n/a	n/a	n/a	n/a	n/a	n/a	n/a	n/a	n/a	n/a	n/a	n/a	n/a	n/a	n/a	n/a	n/a	n/a	n/a	n/a	n/a	n/a	n/a	n/a	n/a	n/a	n/a	n/a	n/a	n/a	n/a	n/a	n/a	n/a	n/a	n/a	637.0464055000339	n/a	n/a	n/a	n/a	n/a	n/a	n/a	n/a	n/a	n/a	n/a	n/a	n/a	n/a	n/a	n/a	n/a	n/a	n/a	n/a	n/a	n/a	n/a	n/a	n/a	n/a	n/a	n/a	n/a	n/a	n/a	n/a	n/a	n/a	n/a	n/a	n/a	n/a	n/a	n/a	n/a	n/a	n/a	n/a	n/a	n/a	n/a	n/a	n/a	n/a	n/a	n/a	n/a	n/a	n/a	n/a	n/a	n/a	n/a	n/a	n/a	n/a	n/a	n/a	23	1	2023-02-23_15h49.35.893	test_final	2022.2.4	60.12773537469888	n/a
n/a	utils/nb_masks/EmoScrambledFW_11F_AN_C.BMP	utils/nb_masks/EmoScrambledBW_11F_AN_C.BMP	n/a	n/a	2.0	n/a	n/a	n/a	n/a	n/a	n/a	n/a	n/a	n/a	n/a	n/a	n/a	n/a	n/a	n/a	n/a	n/a	n/a	n/a	n/a	0.0	0.0	0.0	1.0	3.0	0.0	3.0	0.0	0.0	0.0	0.0	0.0	n/a	n/a	n/a	n/a	n/a	n/a	n/a	n/a	n/a	n/a	n/a	n/a	n/a	n/a	n/a	n/a	n/a	n/a	n/a	n/a	n/a	n/a	639.0606840000255	641.4080391000025	2.3399999999999928	n/a	n/a	n/a	n/a	n/a	n/a	n/a	n/a	n/a	n/a	n/a	n/a	n/a	n/a	n/a	n/a	n/a	n/a	n/a	n/a	n/a	n/a	n/a	n/a	n/a	n/a	n/a	n/a	n/a	n/a	n/a	n/a	n/a	n/a	n/a	n/a	n/a	n/a	n/a	n/a	n/a	n/a	n/a	n/a	n/a	n/a	n/a	n/a	n/a	n/a	3.600027412176132e-06	utils/nb_masks/EmoScrambledFW_11F_AN_C.BMP	0.1330828000209294	8.0	3.8000289350748062e-06	0.0317641000146977	utils/no_prime.png	3.200024366378784e-06	utils/nb_masks/EmoScrambledBW_11F_AN_C.BMP	0.0331880000303499	4.700035788118839e-06	MR2_database/wf06.tif	0.0004336000420153	n/a	n/a	n/a	n/a	right	0.6228494999813847	642.282662099984	643.2892847000039	n/a	n/a	n/a	n/a	n/a	n/a	n/a	n/a	n/a	n/a	n/a	n/a	n/a	n/a	n/a	n/a	23	1	2023-02-23_15h49.35.893	test_final	2022.2.4	60.12773537469888	n/a
n/a	n/a	n/a	n/a	n/a	2.0	n/a	n/a	n/a	n/a	n/a	n/a	n/a	n/a	n/a	n/a	n/a	n/a	n/a	n/a	n/a	n/a	n/a	n/a	n/a	n/a	0.0	0.0	0.0	1.0	3.0	0.0	3.0	0.0	n/a	n/a	n/a	n/a	n/a	n/a	n/a	n/a	0.0	0.0	0.0	0.0	n/a	n/a	n/a	n/a	n/a	n/a	n/a	n/a	n/a	n/a	n/a	n/a	n/a	n/a	n/a	n/a	n/a	n/a	n/a	n/a	n/a	n/a	n/a	n/a	n/a	n/a	n/a	643.2892847000039	643.2892847000039	4.0	0.4252488000201992	643.7387808000203	643.7387808000203	643.7387808000203	643.7387808000203	643.7387808000203	643.7387808000203	4.0	0.2238624000456184	n/a	n/a	n/a	n/a	n/a	n/a	n/a	n/a	n/a	n/a	n/a	n/a	n/a	n/a	n/a	n/a	n/a	n/a	n/a	n/a	n/a	n/a	n/a	n/a	n/a	n/a	n/a	n/a	n/a	n/a	n/a	n/a	n/a	n/a	n/a	n/a	n/a	n/a	n/a	n/a	n/a	n/a	n/a	n/a	n/a	n/a	n/a	n/a	n/a	n/a	n/a	n/a	n/a	n/a	n/a	n/a	n/a	n/a	n/a	n/a	n/a	n/a	n/a	n/a	n/a	23	1	2023-02-23_15h49.35.893	test_final	2022.2.4	60.12773537469888	n/a
n/a	n/a	n/a	n/a	n/a	2.0	n/a	n/a	n/a	n/a	n/a	n/a	n/a	n/a	n/a	n/a	n/a	n/a	n/a	n/a	n/a	n/a	n/a	n/a	n/a	n/a	0.0	0.0	0.0	1.0	3.0	0.0	3.0	0.0	n/a	n/a	n/a	n/a	n/a	n/a	n/a	n/a	n/a	n/a	n/a	n/a	n/a	n/a	n/a	n/a	n/a	n/a	n/a	n/a	n/a	n/a	n/a	n/a	n/a	n/a	n/a	n/a	n/a	n/a	n/a	n/a	n/a	n/a	n/a	n/a	n/a	n/a	n/a	n/a	n/a	n/a	n/a	n/a	n/a	n/a	n/a	n/a	n/a	n/a	n/a	643.9885559999966	n/a	n/a	n/a	n/a	n/a	n/a	n/a	n/a	n/a	n/a	n/a	n/a	n/a	n/a	n/a	n/a	n/a	n/a	n/a	n/a	n/a	n/a	n/a	n/a	n/a	n/a	n/a	n/a	n/a	n/a	n/a	n/a	n/a	n/a	n/a	n/a	n/a	n/a	n/a	n/a	n/a	n/a	n/a	n/a	n/a	n/a	n/a	n/a	n/a	n/a	n/a	n/a	n/a	n/a	n/a	n/a	n/a	n/a	n/a	n/a	n/a	n/a	n/a	n/a	23	1	2023-02-23_15h49.35.893	test_final	2022.2.4	60.12773537469888	n/a
n/a	utils/nb_masks/EmoScrambledFW_10F_AN_O.BMP	utils/nb_masks/EmoScrambledBW_10F_AN_O.BMP	n/a	n/a	2.0	n/a	n/a	n/a	n/a	n/a	n/a	n/a	n/a	n/a	n/a	n/a	n/a	n/a	n/a	n/a	n/a	n/a	n/a	n/a	n/a	0.0	0.0	0.0	1.0	4.0	0.0	4.0	0.0	0.0	0.0	0.0	0.0	n/a	n/a	n/a	n/a	n/a	n/a	n/a	n/a	n/a	n/a	n/a	n/a	n/a	n/a	n/a	n/a	n/a	n/a	n/a	n/a	n/a	n/a	646.0030354000046	648.3670689000282	2.3599999999999923	n/a	n/a	n/a	n/a	n/a	n/a	n/a	n/a	n/a	n/a	n/a	n/a	n/a	n/a	n/a	n/a	n/a	n/a	n/a	n/a	n/a	n/a	n/a	n/a	n/a	n/a	n/a	n/a	n/a	n/a	n/a	n/a	n/a	n/a	n/a	n/a	n/a	n/a	n/a	n/a	n/a	n/a	n/a	n/a	n/a	n/a	n/a	n/a	n/a	n/a	3.999972250312567e-06	utils/nb_masks/EmoScrambledFW_10F_AN_O.BMP	0.1495417999685742	9.0	3.5999692045152187e-06	0.0319485999643802	NimStim_Database/Images/10F_AN_O.BMP	3.5999692045152187e-06	utils/nb_masks/EmoScrambledBW_10F_AN_O.BMP	0.0331945999641902	4.699977580457926e-06	MR2_database/bm05.tif	0.0004914000164717	n/a	n/a	n/a	n/a	left	0.4275873000151478	649.0519626000314	n/a	n/a	n/a	n/a	n/a	n/a	n/a	n/a	n/a	n/a	n/a	n/a	n/a	n/a	n/a	n/a	n/a	23	1	2023-02-23_15h49.35.893	test_final	2022.2.4	60.12773537469888	n/a
n/a	n/a	n/a	n/a	n/a	2.0	n/a	n/a	n/a	n/a	n/a	n/a	n/a	n/a	n/a	n/a	n/a	n/a	n/a	n/a	n/a	n/a	n/a	n/a	n/a	n/a	0.0	0.0	0.0	1.0	4.0	0.0	4.0	0.0	n/a	n/a	n/a	n/a	n/a	n/a	n/a	n/a	0.0	0.0	0.0	0.0	n/a	n/a	n/a	n/a	n/a	n/a	n/a	n/a	n/a	n/a	n/a	n/a	n/a	n/a	n/a	n/a	n/a	n/a	n/a	n/a	n/a	n/a	n/a	n/a	n/a	n/a	n/a	650.0652426999877	650.0652426999877	4.0	0.3480481999577023	650.4314984999946	650.4314984999946	650.4314984999946	650.4314984999946	650.4314984999946	650.4314984999946	1.0	0.1792044999892823	n/a	n/a	n/a	n/a	n/a	n/a	n/a	n/a	n/a	n/a	n/a	n/a	n/a	n/a	n/a	n/a	n/a	n/a	n/a	n/a	n/a	n/a	n/a	n/a	n/a	n/a	n/a	n/a	n/a	n/a	n/a	n/a	n/a	n/a	n/a	n/a	n/a	n/a	n/a	n/a	n/a	n/a	n/a	n/a	n/a	n/a	n/a	n/a	n/a	n/a	n/a	n/a	n/a	n/a	n/a	n/a	n/a	n/a	n/a	n/a	n/a	n/a	n/a	n/a	n/a	23	1	2023-02-23_15h49.35.893	test_final	2022.2.4	60.12773537469888	n/a
n/a	n/a	n/a	n/a	n/a	2.0	n/a	n/a	n/a	n/a	n/a	n/a	n/a	n/a	n/a	n/a	n/a	n/a	n/a	n/a	n/a	n/a	n/a	n/a	n/a	n/a	0.0	0.0	0.0	1.0	4.0	0.0	4.0	0.0	n/a	n/a	n/a	n/a	n/a	n/a	n/a	n/a	n/a	n/a	n/a	n/a	n/a	n/a	n/a	n/a	n/a	n/a	n/a	n/a	n/a	n/a	n/a	n/a	n/a	n/a	n/a	n/a	n/a	n/a	n/a	n/a	n/a	n/a	n/a	n/a	n/a	n/a	n/a	n/a	n/a	n/a	n/a	n/a	n/a	n/a	n/a	n/a	n/a	n/a	n/a	650.6312120000366	n/a	n/a	n/a	n/a	n/a	n/a	n/a	n/a	n/a	n/a	n/a	n/a	n/a	n/a	n/a	n/a	n/a	n/a	n/a	n/a	n/a	n/a	n/a	n/a	n/a	n/a	n/a	n/a	n/a	n/a	n/a	n/a	n/a	n/a	n/a	n/a	n/a	n/a	n/a	n/a	n/a	n/a	n/a	n/a	n/a	n/a	n/a	n/a	n/a	n/a	n/a	n/a	n/a	n/a	n/a	n/a	n/a	n/a	n/a	n/a	n/a	n/a	n/a	n/a	23	1	2023-02-23_15h49.35.893	test_final	2022.2.4	60.12773537469888	n/a
n/a	utils/nb_masks/EmoScrambledFW_14F_AN_O.BMP	utils/nb_masks/EmoScrambledBW_14F_AN_O.BMP	n/a	n/a	2.0	n/a	n/a	n/a	n/a	n/a	n/a	n/a	n/a	n/a	n/a	n/a	n/a	n/a	n/a	n/a	n/a	n/a	n/a	n/a	n/a	0.0	0.0	0.0	1.0	5.0	0.0	5.0	0.0	n/a	n/a	n/a	n/a	0.0	0.0	0.0	0.0	n/a	n/a	n/a	n/a	n/a	n/a	n/a	n/a	n/a	n/a	n/a	n/a	n/a	n/a	n/a	n/a	n/a	n/a	652.6462247000309	654.8770569000044	2.2199999999999958	n/a	n/a	n/a	n/a	n/a	n/a	n/a	n/a	n/a	n/a	n/a	n/a	n/a	n/a	n/a	n/a	n/a	n/a	n/a	n/a	n/a	n/a	n/a	n/a	n/a	n/a	n/a	n/a	n/a	n/a	n/a	n/a	n/a	n/a	n/a	n/a	n/a	n/a	n/a	n/a	n/a	n/a	n/a	n/a	n/a	n/a	n/a	n/a	n/a	n/a	3.699969965964556e-06	utils/nb_masks/EmoScrambledFW_14F_AN_O.BMP	0.0998126999475061	6.0	3.89997148886323e-06	0.0317888999707065	utils/no_prime.png	3.400025889277458e-06	utils/nb_masks/EmoScrambledBW_14F_AN_O.BMP	0.0329092000029049	4.599976819008589e-06	MR2_database/am06.tif	0.0004253999795764	655.8347351999837	655.8347351999837	space	1.810861100035254	n/a	n/a	n/a	n/a	n/a	n/a	n/a	n/a	n/a	n/a	n/a	n/a	n/a	n/a	n/a	n/a	n/a	n/a	n/a	n/a	23	1	2023-02-23_15h49.35.893	test_final	2022.2.4	60.12773537469888	n/a
n/a	n/a	n/a	n/a	n/a	2.0	n/a	n/a	n/a	n/a	n/a	n/a	n/a	n/a	n/a	n/a	n/a	n/a	n/a	n/a	n/a	n/a	n/a	n/a	n/a	n/a	0.0	0.0	0.0	1.0	5.0	0.0	5.0	0.0	n/a	n/a	n/a	n/a	n/a	n/a	n/a	n/a	n/a	n/a	n/a	n/a	n/a	n/a	n/a	n/a	n/a	n/a	n/a	n/a	n/a	n/a	n/a	n/a	n/a	n/a	n/a	n/a	n/a	n/a	n/a	n/a	n/a	n/a	n/a	n/a	n/a	n/a	n/a	n/a	n/a	n/a	n/a	n/a	n/a	n/a	n/a	n/a	n/a	n/a	n/a	657.6740239000064	n/a	n/a	n/a	n/a	n/a	n/a	n/a	n/a	n/a	n/a	n/a	n/a	n/a	n/a	n/a	n/a	n/a	n/a	n/a	n/a	n/a	n/a	n/a	n/a	n/a	n/a	n/a	n/a	n/a	n/a	n/a	n/a	n/a	n/a	n/a	n/a	n/a	n/a	n/a	n/a	n/a	n/a	n/a	n/a	n/a	n/a	n/a	n/a	n/a	n/a	n/a	n/a	n/a	n/a	n/a	n/a	n/a	n/a	n/a	n/a	n/a	n/a	n/a	n/a	23	1	2023-02-23_15h49.35.893	test_final	2022.2.4	60.12773537469888	n/a
n/a	utils/nb_masks/EmoScrambledFW_41M_AN_O.BMP	utils/nb_masks/EmoScrambledBW_41M_AN_O.BMP	n/a	n/a	2.0	n/a	n/a	n/a	n/a	n/a	n/a	n/a	n/a	n/a	n/a	n/a	n/a	n/a	n/a	n/a	n/a	n/a	n/a	n/a	n/a	0.0	0.0	0.0	1.0	6.0	0.0	6.0	0.0	0.0	0.0	0.0	0.0	n/a	n/a	n/a	n/a	n/a	n/a	n/a	n/a	n/a	n/a	n/a	n/a	n/a	n/a	n/a	n/a	n/a	n/a	n/a	n/a	n/a	n/a	659.6884901000303	661.7692752000294	2.0699999999999985	n/a	n/a	n/a	n/a	n/a	n/a	n/a	n/a	n/a	n/a	n/a	n/a	n/a	n/a	n/a	n/a	n/a	n/a	n/a	n/a	n/a	n/a	n/a	n/a	n/a	n/a	n/a	n/a	n/a	n/a	n/a	n/a	n/a	n/a	n/a	n/a	n/a	n/a	n/a	n/a	n/a	n/a	n/a	n/a	n/a	n/a	n/a	n/a	n/a	n/a	4.200031980872154e-06	utils/nb_masks/EmoScrambledFW_41M_AN_O.BMP	0.1327190000447444	8.0	3.700028173625469e-06	0.0319729000329971	NimStim_Database/Images/41M_AN_O.BMP	3.300025127828121e-06	utils/nb_masks/EmoScrambledBW_41M_AN_O.BMP	0.0332042000372894	4.300032742321491e-06	MR2_database/am02.tif	0.0004447000101208	n/a	n/a	n/a	n/a	left	0.3561319999862462	662.3684054000187	663.3677008000086	n/a	n/a	n/a	n/a	n/a	n/a	n/a	n/a	n/a	n/a	n/a	n/a	n/a	n/a	n/a	n/a	23	1	2023-02-23_15h49.35.893	test_final	2022.2.4	60.12773537469888	n/a
n/a	n/a	n/a	n/a	n/a	2.0	n/a	n/a	n/a	n/a	n/a	n/a	n/a	n/a	n/a	n/a	n/a	n/a	n/a	n/a	n/a	n/a	n/a	n/a	n/a	n/a	0.0	0.0	0.0	1.0	6.0	0.0	6.0	0.0	n/a	n/a	n/a	n/a	n/a	n/a	n/a	n/a	0.0	0.0	0.0	0.0	n/a	n/a	n/a	n/a	n/a	n/a	n/a	n/a	n/a	n/a	n/a	n/a	n/a	n/a	n/a	n/a	n/a	n/a	n/a	n/a	n/a	n/a	n/a	n/a	n/a	n/a	n/a	663.3677008000086	663.3677008000086	4.0	0.3855237999814562	663.7839963000151	663.7839963000151	663.7839963000151	663.7839963000151	663.7839963000151	663.7839963000151	1.0	0.1702405999531038	n/a	n/a	n/a	n/a	n/a	n/a	n/a	n/a	n/a	n/a	n/a	n/a	n/a	n/a	n/a	n/a	n/a	n/a	n/a	n/a	n/a	n/a	n/a	n/a	n/a	n/a	n/a	n/a	n/a	n/a	n/a	n/a	n/a	n/a	n/a	n/a	n/a	n/a	n/a	n/a	n/a	n/a	n/a	n/a	n/a	n/a	n/a	n/a	n/a	n/a	n/a	n/a	n/a	n/a	n/a	n/a	n/a	n/a	n/a	n/a	n/a	n/a	n/a	n/a	n/a	23	1	2023-02-23_15h49.35.893	test_final	2022.2.4	60.12773537469888	n/a
n/a	n/a	n/a	n/a	n/a	2.0	n/a	n/a	n/a	n/a	n/a	n/a	n/a	n/a	n/a	n/a	n/a	n/a	n/a	n/a	n/a	n/a	n/a	n/a	n/a	n/a	0.0	0.0	0.0	1.0	6.0	0.0	6.0	0.0	n/a	n/a	n/a	n/a	n/a	n/a	n/a	n/a	n/a	n/a	n/a	n/a	n/a	n/a	n/a	n/a	n/a	n/a	n/a	n/a	n/a	n/a	n/a	n/a	n/a	n/a	n/a	n/a	n/a	n/a	n/a	n/a	n/a	n/a	n/a	n/a	n/a	n/a	n/a	n/a	n/a	n/a	n/a	n/a	n/a	n/a	n/a	n/a	n/a	n/a	n/a	663.9837792000035	n/a	n/a	n/a	n/a	n/a	n/a	n/a	n/a	n/a	n/a	n/a	n/a	n/a	n/a	n/a	n/a	n/a	n/a	n/a	n/a	n/a	n/a	n/a	n/a	n/a	n/a	n/a	n/a	n/a	n/a	n/a	n/a	n/a	n/a	n/a	n/a	n/a	n/a	n/a	n/a	n/a	n/a	n/a	n/a	n/a	n/a	n/a	n/a	n/a	n/a	n/a	n/a	n/a	n/a	n/a	n/a	n/a	n/a	n/a	n/a	n/a	n/a	n/a	n/a	23	1	2023-02-23_15h49.35.893	test_final	2022.2.4	60.12773537469888	n/a
n/a	utils/nb_masks/NeuScrambledFW_43M_NE_C.BMP	utils/nb_masks/NeuScrambledBW_43M_NE_C.BMP	n/a	n/a	2.0	n/a	n/a	n/a	n/a	n/a	n/a	n/a	n/a	n/a	n/a	n/a	n/a	n/a	n/a	n/a	n/a	n/a	n/a	n/a	n/a	0.0	0.0	0.0	1.0	7.0	0.0	7.0	0.0	0.0	0.0	0.0	0.0	n/a	n/a	n/a	n/a	n/a	n/a	n/a	n/a	n/a	n/a	n/a	n/a	n/a	n/a	n/a	n/a	n/a	n/a	n/a	n/a	n/a	n/a	665.9983130000182	668.4786930999835	2.46999999999999	n/a	n/a	n/a	n/a	n/a	n/a	n/a	n/a	n/a	n/a	n/a	n/a	n/a	n/a	n/a	n/a	n/a	n/a	n/a	n/a	n/a	n/a	n/a	n/a	n/a	n/a	n/a	n/a	n/a	n/a	n/a	n/a	n/a	n/a	n/a	n/a	n/a	n/a	n/a	n/a	n/a	n/a	n/a	n/a	n/a	n/a	n/a	n/a	n/a	n/a	3.699969965964556e-06	utils/nb_masks/NeuScrambledFW_43M_NE_C.BMP	0.1160657999571412	7.0	3.600027412176132e-06	0.0322647999855689	utils/no_prime.png	3.3999676816165447e-06	utils/nb_masks/NeuScrambledBW_43M_NE_C.BMP	0.0331651999731548	4.199973773211241e-06	MR2_database/wm01.tif	0.0005214999546296	n/a	n/a	n/a	n/a	left	0.3373286999994889	669.0472110999981	n/a	n/a	n/a	n/a	n/a	n/a	n/a	n/a	n/a	n/a	n/a	n/a	n/a	n/a	n/a	n/a	n/a	23	1	2023-02-23_15h49.35.893	test_final	2022.2.4	60.12773537469888	n/a
n/a	n/a	n/a	n/a	n/a	2.0	n/a	n/a	n/a	n/a	n/a	n/a	n/a	n/a	n/a	n/a	n/a	n/a	n/a	n/a	n/a	n/a	n/a	n/a	n/a	n/a	0.0	0.0	0.0	1.0	7.0	0.0	7.0	0.0	n/a	n/a	n/a	n/a	n/a	n/a	n/a	n/a	0.0	0.0	0.0	0.0	n/a	n/a	n/a	n/a	n/a	n/a	n/a	n/a	n/a	n/a	n/a	n/a	n/a	n/a	n/a	n/a	n/a	n/a	n/a	n/a	n/a	n/a	n/a	n/a	n/a	n/a	n/a	670.0603947000345	670.0603947000345	1.0	1.6739952999632806	671.7583421000163	671.7583421000163	671.7583421000163	671.7583421000163	671.7583421000163	671.7583421000163	1.0	0.9146716999821364	n/a	n/a	n/a	n/a	n/a	n/a	n/a	n/a	n/a	n/a	n/a	n/a	n/a	n/a	n/a	n/a	n/a	n/a	n/a	n/a	n/a	n/a	n/a	n/a	n/a	n/a	n/a	n/a	n/a	n/a	n/a	n/a	n/a	n/a	n/a	n/a	n/a	n/a	n/a	n/a	n/a	n/a	n/a	n/a	n/a	n/a	n/a	n/a	n/a	n/a	n/a	n/a	n/a	n/a	n/a	n/a	n/a	n/a	n/a	n/a	n/a	n/a	n/a	n/a	n/a	23	1	2023-02-23_15h49.35.893	test_final	2022.2.4	60.12773537469888	n/a
n/a	n/a	n/a	n/a	n/a	2.0	n/a	n/a	n/a	n/a	n/a	n/a	n/a	n/a	n/a	n/a	n/a	n/a	n/a	n/a	n/a	n/a	n/a	n/a	n/a	n/a	0.0	0.0	0.0	1.0	7.0	0.0	7.0	0.0	n/a	n/a	n/a	n/a	n/a	n/a	n/a	n/a	n/a	n/a	n/a	n/a	n/a	n/a	n/a	n/a	n/a	n/a	n/a	n/a	n/a	n/a	n/a	n/a	n/a	n/a	n/a	n/a	n/a	n/a	n/a	n/a	n/a	n/a	n/a	n/a	n/a	n/a	n/a	n/a	n/a	n/a	n/a	n/a	n/a	n/a	n/a	n/a	n/a	n/a	n/a	672.6908806000138	n/a	n/a	n/a	n/a	n/a	n/a	n/a	n/a	n/a	n/a	n/a	n/a	n/a	n/a	n/a	n/a	n/a	n/a	n/a	n/a	n/a	n/a	n/a	n/a	n/a	n/a	n/a	n/a	n/a	n/a	n/a	n/a	n/a	n/a	n/a	n/a	n/a	n/a	n/a	n/a	n/a	n/a	n/a	n/a	n/a	n/a	n/a	n/a	n/a	n/a	n/a	n/a	n/a	n/a	n/a	n/a	n/a	n/a	n/a	n/a	n/a	n/a	n/a	n/a	23	1	2023-02-23_15h49.35.893	test_final	2022.2.4	60.12773537469888	n/a
n/a	utils/nb_masks/NeuScrambledFW_14F_NE_C.BMP	utils/nb_masks/NeuScrambledBW_14F_NE_C.BMP	n/a	n/a	2.0	n/a	n/a	n/a	n/a	n/a	n/a	n/a	n/a	n/a	n/a	n/a	n/a	n/a	n/a	n/a	n/a	n/a	n/a	n/a	n/a	0.0	0.0	0.0	1.0	8.0	0.0	8.0	0.0	0.0	0.0	0.0	0.0	n/a	n/a	n/a	n/a	n/a	n/a	n/a	n/a	n/a	n/a	n/a	n/a	n/a	n/a	n/a	n/a	n/a	n/a	n/a	n/a	n/a	n/a	674.7053542000358	676.819247699983	2.1099999999999977	n/a	n/a	n/a	n/a	n/a	n/a	n/a	n/a	n/a	n/a	n/a	n/a	n/a	n/a	n/a	n/a	n/a	n/a	n/a	n/a	n/a	n/a	n/a	n/a	n/a	n/a	n/a	n/a	n/a	n/a	n/a	n/a	n/a	n/a	n/a	n/a	n/a	n/a	n/a	n/a	n/a	n/a	n/a	n/a	n/a	n/a	n/a	n/a	n/a	n/a	3.500026650726795e-06	utils/nb_masks/NeuScrambledFW_14F_NE_C.BMP	0.1500577999977395	9.0	3.600027412176132e-06	0.0319110000273212	utils/no_prime.png	3.300025127828121e-06	utils/nb_masks/NeuScrambledBW_14F_NE_C.BMP	0.0328349000192247	4.500034265220165e-06	MR2_database/wm08.tif	0.000529600016307	n/a	n/a	n/a	n/a	right	0.4046780999633483	677.4863325000042	n/a	n/a	n/a	n/a	n/a	n/a	n/a	n/a	n/a	n/a	n/a	n/a	n/a	n/a	n/a	n/a	n/a	23	1	2023-02-23_15h49.35.893	test_final	2022.2.4	60.12773537469888	n/a
n/a	n/a	n/a	n/a	n/a	2.0	n/a	n/a	n/a	n/a	n/a	n/a	n/a	n/a	n/a	n/a	n/a	n/a	n/a	n/a	n/a	n/a	n/a	n/a	n/a	n/a	0.0	0.0	0.0	1.0	8.0	0.0	8.0	0.0	n/a	n/a	n/a	n/a	n/a	n/a	n/a	n/a	0.0	0.0	0.0	0.0	n/a	n/a	n/a	n/a	n/a	n/a	n/a	n/a	n/a	n/a	n/a	n/a	n/a	n/a	n/a	n/a	n/a	n/a	n/a	n/a	n/a	n/a	n/a	n/a	n/a	n/a	n/a	678.5008589000208	678.5008589000208	4.0	0.7503540000179783	679.283579000039	679.283579000039	679.283579000039	679.283579000039	679.283579000039	679.283579000039	1.0	0.6081746999989264	n/a	n/a	n/a	n/a	n/a	n/a	n/a	n/a	n/a	n/a	n/a	n/a	n/a	n/a	n/a	n/a	n/a	n/a	n/a	n/a	n/a	n/a	n/a	n/a	n/a	n/a	n/a	n/a	n/a	n/a	n/a	n/a	n/a	n/a	n/a	n/a	n/a	n/a	n/a	n/a	n/a	n/a	n/a	n/a	n/a	n/a	n/a	n/a	n/a	n/a	n/a	n/a	n/a	n/a	n/a	n/a	n/a	n/a	n/a	n/a	n/a	n/a	n/a	n/a	n/a	23	1	2023-02-23_15h49.35.893	test_final	2022.2.4	60.12773537469888	n/a
n/a	n/a	n/a	n/a	n/a	2.0	n/a	n/a	n/a	n/a	n/a	n/a	n/a	n/a	n/a	n/a	n/a	n/a	n/a	n/a	n/a	n/a	n/a	n/a	n/a	n/a	0.0	0.0	0.0	1.0	8.0	0.0	8.0	0.0	n/a	n/a	n/a	n/a	n/a	n/a	n/a	n/a	n/a	n/a	n/a	n/a	n/a	n/a	n/a	n/a	n/a	n/a	n/a	n/a	n/a	n/a	n/a	n/a	n/a	n/a	n/a	n/a	n/a	n/a	n/a	n/a	n/a	n/a	n/a	n/a	n/a	n/a	n/a	n/a	n/a	n/a	n/a	n/a	n/a	n/a	n/a	n/a	n/a	n/a	n/a	679.9158702000277	n/a	n/a	n/a	n/a	n/a	n/a	n/a	n/a	n/a	n/a	n/a	n/a	n/a	n/a	n/a	n/a	n/a	n/a	n/a	n/a	n/a	n/a	n/a	n/a	n/a	n/a	n/a	n/a	n/a	n/a	n/a	n/a	n/a	n/a	n/a	n/a	n/a	n/a	n/a	n/a	n/a	n/a	n/a	n/a	n/a	n/a	n/a	n/a	n/a	n/a	n/a	n/a	n/a	n/a	n/a	n/a	n/a	n/a	n/a	n/a	n/a	n/a	n/a	n/a	23	1	2023-02-23_15h49.35.893	test_final	2022.2.4	60.12773537469888	n/a
n/a	utils/nb_masks/NeuScrambledFW_23M_NE_O.BMP	utils/nb_masks/NeuScrambledBW_23M_NE_O.BMP	n/a	n/a	2.0	n/a	n/a	n/a	n/a	n/a	n/a	n/a	n/a	n/a	n/a	n/a	n/a	n/a	n/a	n/a	n/a	n/a	n/a	n/a	n/a	0.0	0.0	0.0	1.0	9.0	0.0	9.0	0.0	0.0	0.0	0.0	0.0	n/a	n/a	n/a	n/a	n/a	n/a	n/a	n/a	n/a	n/a	n/a	n/a	n/a	n/a	n/a	n/a	n/a	n/a	n/a	n/a	n/a	n/a	681.9306883999961	684.3947125999839	2.4499999999999904	n/a	n/a	n/a	n/a	n/a	n/a	n/a	n/a	n/a	n/a	n/a	n/a	n/a	n/a	n/a	n/a	n/a	n/a	n/a	n/a	n/a	n/a	n/a	n/a	n/a	n/a	n/a	n/a	n/a	n/a	n/a	n/a	n/a	n/a	n/a	n/a	n/a	n/a	n/a	n/a	n/a	n/a	n/a	n/a	n/a	n/a	n/a	n/a	n/a	n/a	3.5999692045152187e-06	utils/nb_masks/NeuScrambledFW_23M_NE_O.BMP	0.1164761999971233	7.0	4.099973011761904e-06	0.0316254000063054	utils/no_prime.png	3.299966920167208e-06	utils/nb_masks/NeuScrambledBW_23M_NE_O.BMP	0.0334205999970436	4.200031980872154e-06	MR2_database/bf10.tif	0.0004935000324621	n/a	n/a	n/a	n/a	right	0.6153608000022359	685.2366272000363	686.2423801000114	n/a	n/a	n/a	n/a	n/a	n/a	n/a	n/a	n/a	n/a	n/a	n/a	n/a	n/a	n/a	n/a	23	1	2023-02-23_15h49.35.893	test_final	2022.2.4	60.12773537469888	n/a
n/a	n/a	n/a	n/a	n/a	2.0	n/a	n/a	n/a	n/a	n/a	n/a	n/a	n/a	n/a	n/a	n/a	n/a	n/a	n/a	n/a	n/a	n/a	n/a	n/a	n/a	0.0	0.0	0.0	1.0	9.0	0.0	9.0	0.0	n/a	n/a	n/a	n/a	n/a	n/a	n/a	n/a	0.0	0.0	0.0	0.0	n/a	n/a	n/a	n/a	n/a	n/a	n/a	n/a	n/a	n/a	n/a	n/a	n/a	n/a	n/a	n/a	n/a	n/a	n/a	n/a	n/a	n/a	n/a	n/a	n/a	n/a	n/a	686.2423801000114	686.2423801000114	1.0	0.2478650999837555	686.5089805999887	686.5089805999887	686.5089805999887	686.5089805999887	686.5089805999887	686.5089805999887	4.0	0.7114312999765389	n/a	n/a	n/a	n/a	n/a	n/a	n/a	n/a	n/a	n/a	n/a	n/a	n/a	n/a	n/a	n/a	n/a	n/a	n/a	n/a	n/a	n/a	n/a	n/a	n/a	n/a	n/a	n/a	n/a	n/a	n/a	n/a	n/a	n/a	n/a	n/a	n/a	n/a	n/a	n/a	n/a	n/a	n/a	n/a	n/a	n/a	n/a	n/a	n/a	n/a	n/a	n/a	n/a	n/a	n/a	n/a	n/a	n/a	n/a	n/a	n/a	n/a	n/a	n/a	n/a	23	1	2023-02-23_15h49.35.893	test_final	2022.2.4	60.12773537469888	n/a
n/a	n/a	n/a	n/a	n/a	2.0	n/a	n/a	n/a	n/a	n/a	n/a	n/a	n/a	n/a	n/a	n/a	n/a	n/a	n/a	n/a	n/a	n/a	n/a	n/a	n/a	0.0	0.0	0.0	1.0	9.0	0.0	9.0	0.0	n/a	n/a	n/a	n/a	n/a	n/a	n/a	n/a	n/a	n/a	n/a	n/a	n/a	n/a	n/a	n/a	n/a	n/a	n/a	n/a	n/a	n/a	n/a	n/a	n/a	n/a	n/a	n/a	n/a	n/a	n/a	n/a	n/a	n/a	n/a	n/a	n/a	n/a	n/a	n/a	n/a	n/a	n/a	n/a	n/a	n/a	n/a	n/a	n/a	n/a	n/a	687.241258300026	n/a	n/a	n/a	n/a	n/a	n/a	n/a	n/a	n/a	n/a	n/a	n/a	n/a	n/a	n/a	n/a	n/a	n/a	n/a	n/a	n/a	n/a	n/a	n/a	n/a	n/a	n/a	n/a	n/a	n/a	n/a	n/a	n/a	n/a	n/a	n/a	n/a	n/a	n/a	n/a	n/a	n/a	n/a	n/a	n/a	n/a	n/a	n/a	n/a	n/a	n/a	n/a	n/a	n/a	n/a	n/a	n/a	n/a	n/a	n/a	n/a	n/a	n/a	n/a	23	1	2023-02-23_15h49.35.893	test_final	2022.2.4	60.12773537469888	n/a
n/a	utils/nb_masks/NeuScrambledFW_30M_NE_C.BMP	utils/nb_masks/NeuScrambledBW_30M_NE_C.BMP	n/a	n/a	2.0	n/a	n/a	n/a	n/a	n/a	n/a	n/a	n/a	n/a	n/a	n/a	n/a	n/a	n/a	n/a	n/a	n/a	n/a	n/a	n/a	0.0	0.0	0.0	1.0	10.0	0.0	10.0	0.0	n/a	n/a	n/a	n/a	0.0	0.0	0.0	0.0	n/a	n/a	n/a	n/a	n/a	n/a	n/a	n/a	n/a	n/a	n/a	n/a	n/a	n/a	n/a	n/a	n/a	n/a	689.2559774999972	691.73658050003	2.4799999999999898	n/a	n/a	n/a	n/a	n/a	n/a	n/a	n/a	n/a	n/a	n/a	n/a	n/a	n/a	n/a	n/a	n/a	n/a	n/a	n/a	n/a	n/a	n/a	n/a	n/a	n/a	n/a	n/a	n/a	n/a	n/a	n/a	n/a	n/a	n/a	n/a	n/a	n/a	n/a	n/a	n/a	n/a	n/a	n/a	n/a	n/a	n/a	n/a	n/a	n/a	3.700028173625469e-06	utils/nb_masks/NeuScrambledFW_30M_NE_C.BMP	0.0996487000375054	6.0	3.700028173625469e-06	0.0321173000265844	utils/no_prime.png	3.400025889277458e-06	utils/nb_masks/NeuScrambledBW_30M_NE_C.BMP	0.0331482000183314	4.199973773211241e-06	MR2_database/wm02.tif	0.0003727999865077	692.6977934000315	692.6977934000315	space	1.013316600001417	n/a	n/a	n/a	n/a	n/a	n/a	n/a	n/a	n/a	n/a	n/a	n/a	n/a	n/a	n/a	n/a	n/a	n/a	n/a	n/a	23	1	2023-02-23_15h49.35.893	test_final	2022.2.4	60.12773537469888	n/a
n/a	n/a	n/a	n/a	n/a	2.0	n/a	n/a	n/a	n/a	n/a	n/a	n/a	n/a	n/a	n/a	n/a	n/a	n/a	n/a	n/a	n/a	n/a	n/a	n/a	n/a	0.0	0.0	0.0	1.0	10.0	0.0	10.0	0.0	n/a	n/a	n/a	n/a	n/a	n/a	n/a	n/a	n/a	n/a	n/a	n/a	n/a	n/a	n/a	n/a	n/a	n/a	n/a	n/a	n/a	n/a	n/a	n/a	n/a	n/a	n/a	n/a	n/a	n/a	n/a	n/a	n/a	n/a	n/a	n/a	n/a	n/a	n/a	n/a	n/a	n/a	n/a	n/a	n/a	n/a	n/a	n/a	n/a	n/a	n/a	693.7342411000282	n/a	n/a	n/a	n/a	n/a	n/a	n/a	n/a	n/a	n/a	n/a	n/a	n/a	n/a	n/a	n/a	n/a	n/a	n/a	n/a	n/a	n/a	n/a	n/a	n/a	n/a	n/a	n/a	n/a	n/a	n/a	n/a	n/a	n/a	n/a	n/a	n/a	n/a	n/a	n/a	n/a	n/a	n/a	n/a	n/a	n/a	n/a	n/a	n/a	n/a	n/a	n/a	n/a	n/a	n/a	n/a	n/a	n/a	n/a	n/a	n/a	n/a	n/a	n/a	23	1	2023-02-23_15h49.35.893	test_final	2022.2.4	60.12773537469888	n/a
n/a	utils/nb_masks/EmoScrambledFW_35M_AN_C.BMP	utils/nb_masks/EmoScrambledBW_35M_AN_C.BMP	n/a	n/a	2.0	n/a	n/a	n/a	n/a	n/a	n/a	n/a	n/a	n/a	n/a	n/a	n/a	n/a	n/a	n/a	n/a	n/a	n/a	n/a	n/a	0.0	0.0	0.0	1.0	11.0	0.0	11.0	0.0	0.0	0.0	0.0	0.0	n/a	n/a	n/a	n/a	n/a	n/a	n/a	n/a	n/a	n/a	n/a	n/a	n/a	n/a	n/a	n/a	n/a	n/a	n/a	n/a	n/a	n/a	695.7488272000337	698.0629099000362	2.3099999999999934	n/a	n/a	n/a	n/a	n/a	n/a	n/a	n/a	n/a	n/a	n/a	n/a	n/a	n/a	n/a	n/a	n/a	n/a	n/a	n/a	n/a	n/a	n/a	n/a	n/a	n/a	n/a	n/a	n/a	n/a	n/a	n/a	n/a	n/a	n/a	n/a	n/a	n/a	n/a	n/a	n/a	n/a	n/a	n/a	n/a	n/a	n/a	n/a	n/a	n/a	3.999972250312567e-06	utils/nb_masks/EmoScrambledFW_35M_AN_C.BMP	0.1329360000090673	8.0	3.600027412176132e-06	0.0316962000215426	NimStim_Database/Images/35M_AN_C.BMP	3.7999707274138927e-06	utils/nb_masks/EmoScrambledBW_35M_AN_C.BMP	0.0332722999737598	4.900037311017513e-06	MR2_database/wm10.tif	0.0005371000152081	n/a	n/a	n/a	n/a	right	0.4737688000313937	698.7824403999839	n/a	n/a	n/a	n/a	n/a	n/a	n/a	n/a	n/a	n/a	n/a	n/a	n/a	n/a	n/a	n/a	n/a	23	1	2023-02-23_15h49.35.893	test_final	2022.2.4	60.12773537469888	n/a
n/a	n/a	n/a	n/a	n/a	2.0	n/a	n/a	n/a	n/a	n/a	n/a	n/a	n/a	n/a	n/a	n/a	n/a	n/a	n/a	n/a	n/a	n/a	n/a	n/a	n/a	0.0	0.0	0.0	1.0	11.0	0.0	11.0	0.0	n/a	n/a	n/a	n/a	n/a	n/a	n/a	n/a	0.0	0.0	0.0	0.0	n/a	n/a	n/a	n/a	n/a	n/a	n/a	n/a	n/a	n/a	n/a	n/a	n/a	n/a	n/a	n/a	n/a	n/a	n/a	n/a	n/a	n/a	n/a	n/a	n/a	n/a	n/a	699.7943917000084	699.7943917000084	4.0	0.7754678999772295	700.5933970999904	700.5933970999904	700.5933970999904	700.5933970999904	700.5933970999904	700.5933970999904	1.0	0.2070996999973431	n/a	n/a	n/a	n/a	n/a	n/a	n/a	n/a	n/a	n/a	n/a	n/a	n/a	n/a	n/a	n/a	n/a	n/a	n/a	n/a	n/a	n/a	n/a	n/a	n/a	n/a	n/a	n/a	n/a	n/a	n/a	n/a	n/a	n/a	n/a	n/a	n/a	n/a	n/a	n/a	n/a	n/a	n/a	n/a	n/a	n/a	n/a	n/a	n/a	n/a	n/a	n/a	n/a	n/a	n/a	n/a	n/a	n/a	n/a	n/a	n/a	n/a	n/a	n/a	n/a	23	1	2023-02-23_15h49.35.893	test_final	2022.2.4	60.12773537469888	n/a
n/a	n/a	n/a	n/a	n/a	2.0	n/a	n/a	n/a	n/a	n/a	n/a	n/a	n/a	n/a	n/a	n/a	n/a	n/a	n/a	n/a	n/a	n/a	n/a	n/a	n/a	0.0	0.0	0.0	1.0	11.0	0.0	11.0	0.0	n/a	n/a	n/a	n/a	n/a	n/a	n/a	n/a	n/a	n/a	n/a	n/a	n/a	n/a	n/a	n/a	n/a	n/a	n/a	n/a	n/a	n/a	n/a	n/a	n/a	n/a	n/a	n/a	n/a	n/a	n/a	n/a	n/a	n/a	n/a	n/a	n/a	n/a	n/a	n/a	n/a	n/a	n/a	n/a	n/a	n/a	n/a	n/a	n/a	n/a	n/a	700.8266422000015	n/a	n/a	n/a	n/a	n/a	n/a	n/a	n/a	n/a	n/a	n/a	n/a	n/a	n/a	n/a	n/a	n/a	n/a	n/a	n/a	n/a	n/a	n/a	n/a	n/a	n/a	n/a	n/a	n/a	n/a	n/a	n/a	n/a	n/a	n/a	n/a	n/a	n/a	n/a	n/a	n/a	n/a	n/a	n/a	n/a	n/a	n/a	n/a	n/a	n/a	n/a	n/a	n/a	n/a	n/a	n/a	n/a	n/a	n/a	n/a	n/a	n/a	n/a	n/a	23	1	2023-02-23_15h49.35.893	test_final	2022.2.4	60.12773537469888	n/a
n/a	utils/nb_masks/NeuScrambledFW_01F_NE_C.BMP	utils/nb_masks/NeuScrambledBW_01F_NE_C.BMP	n/a	n/a	2.0	n/a	n/a	n/a	n/a	n/a	n/a	n/a	n/a	n/a	n/a	n/a	n/a	n/a	n/a	n/a	n/a	n/a	n/a	n/a	n/a	0.0	0.0	0.0	1.0	12.0	0.0	12.0	0.0	0.0	0.0	0.0	0.0	n/a	n/a	n/a	n/a	n/a	n/a	n/a	n/a	n/a	n/a	n/a	n/a	n/a	n/a	n/a	n/a	n/a	n/a	n/a	n/a	n/a	n/a	702.8408693000092	705.1550646999967	2.3099999999999934	n/a	n/a	n/a	n/a	n/a	n/a	n/a	n/a	n/a	n/a	n/a	n/a	n/a	n/a	n/a	n/a	n/a	n/a	n/a	n/a	n/a	n/a	n/a	n/a	n/a	n/a	n/a	n/a	n/a	n/a	n/a	n/a	n/a	n/a	n/a	n/a	n/a	n/a	n/a	n/a	n/a	n/a	n/a	n/a	n/a	n/a	n/a	n/a	n/a	n/a	3.5999692045152187e-06	utils/nb_masks/NeuScrambledFW_01F_NE_C.BMP	0.1162592999753542	7.0	3.8000289350748062e-06	0.0320352999842725	utils/no_prime.png	3.500026650726795e-06	utils/nb_masks/NeuScrambledBW_01F_NE_C.BMP	0.0331240000086836	4.400033503770828e-06	MR2_database/bf02.tif	0.0004491999861784	n/a	n/a	n/a	n/a	right	0.4281022999784909	705.8104700000258	706.8200410000281	n/a	n/a	n/a	n/a	n/a	n/a	n/a	n/a	n/a	n/a	n/a	n/a	n/a	n/a	n/a	n/a	23	1	2023-02-23_15h49.35.893	test_final	2022.2.4	60.12773537469888	n/a
n/a	n/a	n/a	n/a	n/a	2.0	n/a	n/a	n/a	n/a	n/a	n/a	n/a	n/a	n/a	n/a	n/a	n/a	n/a	n/a	n/a	n/a	n/a	n/a	n/a	n/a	0.0	0.0	0.0	1.0	12.0	0.0	12.0	0.0	n/a	n/a	n/a	n/a	n/a	n/a	n/a	n/a	0.0	0.0	0.0	0.0	n/a	n/a	n/a	n/a	n/a	n/a	n/a	n/a	n/a	n/a	n/a	n/a	n/a	n/a	n/a	n/a	n/a	n/a	n/a	n/a	n/a	n/a	n/a	n/a	n/a	n/a	n/a	706.8200410000281	706.8200410000281	4.0	0.4932111999951303	707.3359762000036	707.3359762000036	707.3359762000036	707.3359762000036	707.3359762000036	707.3359762000036	1.0	0.2456805999972857	n/a	n/a	n/a	n/a	n/a	n/a	n/a	n/a	n/a	n/a	n/a	n/a	n/a	n/a	n/a	n/a	n/a	n/a	n/a	n/a	n/a	n/a	n/a	n/a	n/a	n/a	n/a	n/a	n/a	n/a	n/a	n/a	n/a	n/a	n/a	n/a	n/a	n/a	n/a	n/a	n/a	n/a	n/a	n/a	n/a	n/a	n/a	n/a	n/a	n/a	n/a	n/a	n/a	n/a	n/a	n/a	n/a	n/a	n/a	n/a	n/a	n/a	n/a	n/a	n/a	23	1	2023-02-23_15h49.35.893	test_final	2022.2.4	60.12773537469888	n/a
n/a	n/a	n/a	n/a	n/a	2.0	n/a	n/a	n/a	n/a	n/a	n/a	n/a	n/a	n/a	n/a	n/a	n/a	n/a	n/a	n/a	n/a	n/a	n/a	n/a	n/a	0.0	0.0	0.0	1.0	12.0	0.0	12.0	0.0	n/a	n/a	n/a	n/a	n/a	n/a	n/a	n/a	n/a	n/a	n/a	n/a	n/a	n/a	n/a	n/a	n/a	n/a	n/a	n/a	n/a	n/a	n/a	n/a	n/a	n/a	n/a	n/a	n/a	n/a	n/a	n/a	n/a	n/a	n/a	n/a	n/a	n/a	n/a	n/a	n/a	n/a	n/a	n/a	n/a	n/a	n/a	n/a	n/a	n/a	n/a	707.6026909000357	n/a	n/a	n/a	n/a	n/a	n/a	n/a	n/a	n/a	n/a	n/a	n/a	n/a	n/a	n/a	n/a	n/a	n/a	n/a	n/a	n/a	n/a	n/a	n/a	n/a	n/a	n/a	n/a	n/a	n/a	n/a	n/a	n/a	n/a	n/a	n/a	n/a	n/a	n/a	n/a	n/a	n/a	n/a	n/a	n/a	n/a	n/a	n/a	n/a	n/a	n/a	n/a	n/a	n/a	n/a	n/a	n/a	n/a	n/a	n/a	n/a	n/a	n/a	n/a	23	1	2023-02-23_15h49.35.893	test_final	2022.2.4	60.12773537469888	n/a
