prac_prime	forward_mask	backward_mask	practice_part1	practice_part2	condition	practice_1.thisRepN	practice_1.thisTrialN	practice_1.thisN	practice_1.thisIndex	practice_2.thisRepN	practice_2.thisTrialN	practice_2.thisN	practice_2.thisIndex	fbLoop1.thisRepN	fbLoop1.thisTrialN	fbLoop1.thisN	fbLoop1.thisIndex	fbLoop2.thisRepN	fbLoop2.thisTrialN	fbLoop2.thisN	fbLoop2.thisIndex	skip_prac.thisRepN	skip_prac.thisTrialN	skip_prac.thisN	skip_prac.thisIndex	block_conditions.thisRepN	block_conditions.thisTrialN	block_conditions.thisN	block_conditions.thisIndex	blocks.thisRepN	blocks.thisTrialN	blocks.thisN	blocks.thisIndex	feedback_con1.thisRepN	feedback_con1.thisTrialN	feedback_con1.thisN	feedback_con1.thisIndex	feedback_con2.thisRepN	feedback_con2.thisTrialN	feedback_con2.thisN	feedback_con2.thisIndex	skip_questionnaire.thisRepN	skip_questionnaire.thisTrialN	skip_questionnaire.thisN	skip_questionnaire.thisIndex	loading_screen.started	welcome_text.started	welcome_resp.started	welcome_resp.keys	welcome_resp.rt	Task_instructions.started	instructions_resp.started	Fake_demo.started	left_arrow_demo.started	Real_demo.started	right_arrow_demo.started	instructions_resp.keys	instructions_resp.rt	fix_cross.started	fix_cross.stopped	fixation_duration	pratice_target1.started	practice_part1_resp.started	prac_LeftArrow.started	prac_RightArrow.started	prac_FakeLabel1.started	prac_RealLabel1.started	practice_part1_resp.keys	practice_part1_resp.rt	prac_fb.started	ISI_prac.started	confidence_resp.started	confidence_scale.started	confidence_resp.keys	confidence_resp.rt	stim_gender.started	attention_resp.started	male_button.started	female_button.started	male_label.started	female_label.started	attention_resp.keys	attention_resp.rt	prestim_text.started	Practice_instructions.started	key_resp.started	key_resp.keys	key_resp.rt	pract_fw.started	pract_fw.stopped	pract_prime.started	pract_prime.stopped	pract_bm.started	pract_bm.stopped	pract_target2.started	prac_resp2.started	prac_LeftArrow_2.started	prac_RightArrow_2.started	prac_FakeLabel1_2.started	prac_RealLabel1_2.started	prac_resp2.keys	prac_fb3.started	prac_fb_resp.started	prac_fb_resp.keys	prac_fb_resp.rt	prac_resp2.rt	prac_fb2.started	prac_fb2.stopped	begin_expt.started	begin_expt.keys	begin_expt.rt	forward_mask.started	forward_mask.1	forward_mask.stopped	forward_mask_duration.frames	prime.started	prime.stopped	prime	backward_mask.started	backward_mask.1	backward_mask.stopped	target.started	target	target.stopped	realness_response	realness_rt	rt_fb.started	rt_fb.stopped	rt_fb_2.started	feedback_resp.started	feedback_resp.keys	feedback_resp.rt	break_text.started	break_resp.started	break_resp.keys	break_resp.rt	familiarity_scale.started	familiarity_resp.started	familiarity_resp.keys	familiarity_resp.rt	PAS_question.started	PAS_response.started	PAS_response.keys	PAS_response.rt	end_experiment.started	end_key.started	end_key.keys	end_key.rt	participant	session	date	expName	psychopyVersion	frameRate	Unnamed: 155
n/a	n/a	n/a	n/a	n/a	n/a	n/a	n/a	n/a	n/a	n/a	n/a	n/a	n/a	n/a	n/a	n/a	n/a	n/a	n/a	n/a	n/a	n/a	n/a	n/a	n/a	n/a	n/a	n/a	n/a	n/a	n/a	n/a	n/a	n/a	n/a	n/a	n/a	n/a	n/a	n/a	n/a	n/a	n/a	n/a	n/a	20.78454209980555	114.91792659997007	114.91792659997007	space	24.21300130011514	n/a	n/a	n/a	n/a	n/a	n/a	n/a	n/a	n/a	n/a	n/a	n/a	n/a	n/a	n/a	n/a	n/a	n/a	n/a	n/a	n/a	n/a	n/a	n/a	n/a	n/a	n/a	n/a	n/a	n/a	n/a	n/a	n/a	n/a	n/a	n/a	n/a	n/a	n/a	n/a	n/a	n/a	n/a	n/a	n/a	n/a	n/a	n/a	n/a	n/a	n/a	n/a	n/a	n/a	n/a	n/a	n/a	n/a	n/a	n/a	n/a	n/a	n/a	n/a	n/a	n/a	n/a	n/a	n/a	n/a	n/a	n/a	n/a	n/a	n/a	n/a	n/a	n/a	n/a	n/a	n/a	n/a	n/a	n/a	n/a	n/a	n/a	n/a	n/a	n/a	n/a	n/a	n/a	n/a	n/a	n/a	n/a	n/a	12	1	2023-02-01_18h39.33.684	test_final	2022.2.4	60.04332728732733	n/a
n/a	n/a	n/a	n/a	n/a	n/a	n/a	n/a	n/a	n/a	n/a	n/a	n/a	n/a	n/a	n/a	n/a	n/a	n/a	n/a	n/a	n/a	n/a	n/a	n/a	n/a	n/a	n/a	n/a	n/a	n/a	n/a	n/a	n/a	n/a	n/a	n/a	n/a	n/a	n/a	n/a	n/a	n/a	n/a	n/a	n/a	n/a	n/a	n/a	n/a	n/a	139.16919959988445	139.16919959988445	139.16919959988445	139.16919959988445	139.16919959988445	139.16919959988445	space	5.934075300116092	n/a	n/a	n/a	n/a	n/a	n/a	n/a	n/a	n/a	n/a	n/a	n/a	n/a	n/a	n/a	n/a	n/a	n/a	n/a	n/a	n/a	n/a	n/a	n/a	n/a	n/a	n/a	n/a	n/a	n/a	n/a	n/a	n/a	n/a	n/a	n/a	n/a	n/a	n/a	n/a	n/a	n/a	n/a	n/a	n/a	n/a	n/a	n/a	n/a	n/a	n/a	n/a	n/a	n/a	n/a	n/a	n/a	n/a	n/a	n/a	n/a	n/a	n/a	n/a	n/a	n/a	n/a	n/a	n/a	n/a	n/a	n/a	n/a	n/a	n/a	n/a	n/a	n/a	n/a	n/a	n/a	n/a	n/a	n/a	n/a	n/a	n/a	n/a	n/a	n/a	12	1	2023-02-01_18h39.33.684	test_final	2022.2.4	60.04332728732733	n/a
NimStim_Database/Images/33M_NE_C.BMP	utils/practice/ScrambledFW_25M_NE_C.BMP	utils/practice/ScrambledBW_25M_NE_C.BMP	utils/practice/fake_prac4.jpg	utils/practice/fake_prac5.jpg	n/a	0.0	0.0	0.0	10.0	n/a	n/a	n/a	n/a	n/a	n/a	n/a	n/a	n/a	n/a	n/a	n/a	n/a	n/a	n/a	n/a	n/a	n/a	n/a	n/a	n/a	n/a	n/a	n/a	n/a	n/a	n/a	n/a	n/a	n/a	n/a	n/a	n/a	n/a	n/a	n/a	n/a	n/a	n/a	n/a	n/a	n/a	n/a	n/a	n/a	n/a	n/a	n/a	n/a	145.14491599984467	147.62789739994332	2.419999999999991	147.62789739994332	147.62789739994332	147.62789739994332	147.62789739994332	147.62789739994332	147.62789739994332	right	1.4575770001392812	149.1138068998698	0.0152369001880288	151.1054192997981	151.1054192997981	4.0	4.742066000122577	155.86617269995622	155.86617269995622	155.86617269995622	155.86617269995622	155.86617269995622	155.86617269995622	4.0	2.972873800201341	158.86272189999	n/a	n/a	n/a	n/a	n/a	n/a	n/a	n/a	n/a	n/a	n/a	n/a	n/a	n/a	n/a	n/a	n/a	n/a	n/a	n/a	n/a	n/a	n/a	n/a	n/a	n/a	n/a	n/a	utils/practice/ScrambledFW_25M_NE_C.BMP	n/a	n/a	n/a	n/a	n/a	n/a	utils/practice/ScrambledBW_25M_NE_C.BMP	n/a	n/a	n/a	n/a	n/a	n/a	n/a	n/a	n/a	n/a	n/a	n/a	n/a	n/a	n/a	n/a	n/a	n/a	n/a	n/a	n/a	n/a	n/a	n/a	n/a	n/a	n/a	n/a	12	1	2023-02-01_18h39.33.684	test_final	2022.2.4	60.04332728732733	n/a
NimStim_Database/Images/12F_NE_C.BMP	utils/practice/ScrambledFW_03F_NE_O.BMP	utils/practice/ScrambledBW_03F_NE_O.BMP	utils/practice/real_prac9.jpg	utils/practice/real_prac13.jpg	n/a	0.0	1.0	1.0	1.0	n/a	n/a	n/a	n/a	n/a	n/a	n/a	n/a	n/a	n/a	n/a	n/a	n/a	n/a	n/a	n/a	n/a	n/a	n/a	n/a	n/a	n/a	n/a	n/a	n/a	n/a	n/a	n/a	n/a	n/a	n/a	n/a	n/a	n/a	n/a	n/a	n/a	n/a	n/a	n/a	n/a	n/a	n/a	n/a	n/a	n/a	n/a	n/a	n/a	160.87729649990797	163.3822556999512	2.4499999999999904	163.3822556999512	163.3822556999512	163.3822556999512	163.3822556999512	163.3822556999512	163.3822556999512	right	2.029032900230959	165.44658529991284	0.0185475999023765	167.43653429998085	167.43653429998085	2.0	2.095681800041348	169.5509542999789	169.5509542999789	169.5509542999789	169.5509542999789	169.5509542999789	169.5509542999789	1.0	0.727414500201121	170.30024129990488	n/a	n/a	n/a	n/a	n/a	n/a	n/a	n/a	n/a	n/a	n/a	n/a	n/a	n/a	n/a	n/a	n/a	n/a	n/a	n/a	n/a	n/a	n/a	n/a	n/a	n/a	n/a	n/a	utils/practice/ScrambledFW_03F_NE_O.BMP	n/a	n/a	n/a	n/a	n/a	n/a	utils/practice/ScrambledBW_03F_NE_O.BMP	n/a	n/a	n/a	n/a	n/a	n/a	n/a	n/a	n/a	n/a	n/a	n/a	n/a	n/a	n/a	n/a	n/a	n/a	n/a	n/a	n/a	n/a	n/a	n/a	n/a	n/a	n/a	n/a	12	1	2023-02-01_18h39.33.684	test_final	2022.2.4	60.04332728732733	n/a
NimStim_Database/Images/01F_NE_O.BMP	utils/practice/ScrambledFW_28M_NE_O.BMP	utils/practice/ScrambledBW_28M_NE_O.BMP	utils/practice/fake_prac14.jpg	utils/practice/fake_prac8.jpg	n/a	0.0	2.0	2.0	12.0	n/a	n/a	n/a	n/a	n/a	n/a	n/a	n/a	n/a	n/a	n/a	n/a	n/a	n/a	n/a	n/a	n/a	n/a	n/a	n/a	n/a	n/a	n/a	n/a	n/a	n/a	n/a	n/a	n/a	n/a	n/a	n/a	n/a	n/a	n/a	n/a	n/a	n/a	n/a	n/a	n/a	n/a	n/a	n/a	n/a	n/a	n/a	n/a	n/a	172.3147057997994	174.4334658998996	2.0799999999999983	174.4334658998996	174.4334658998996	174.4334658998996	174.4334658998996	174.4334658998996	174.4334658998996	left	1.4682387001812458	175.9272429998964	0.0048201000317931	177.94174549984746	177.94174549984746	2.0	0.706999400164932	178.67440179991536	178.67440179991536	178.67440179991536	178.67440179991536	178.67440179991536	178.67440179991536	4.0	0.3639595001004636	179.05718479980715	n/a	n/a	n/a	n/a	n/a	n/a	n/a	n/a	n/a	n/a	n/a	n/a	n/a	n/a	n/a	n/a	n/a	n/a	n/a	n/a	n/a	n/a	n/a	n/a	n/a	n/a	n/a	n/a	utils/practice/ScrambledFW_28M_NE_O.BMP	n/a	n/a	n/a	n/a	n/a	n/a	utils/practice/ScrambledBW_28M_NE_O.BMP	n/a	n/a	n/a	n/a	n/a	n/a	n/a	n/a	n/a	n/a	n/a	n/a	n/a	n/a	n/a	n/a	n/a	n/a	n/a	n/a	n/a	n/a	n/a	n/a	n/a	n/a	n/a	n/a	12	1	2023-02-01_18h39.33.684	test_final	2022.2.4	60.04332728732733	n/a
NimStim_Database/Images/23M_NE_C.BMP	utils/practice/ScrambledFW_28M_NE_C.BMP	utils/practice/ScrambledBW_28M_NE_C.BMP	utils/practice/real_prac8.jpg	utils/practice/real_prac3.jpg	n/a	0.0	3.0	3.0	11.0	n/a	n/a	n/a	n/a	n/a	n/a	n/a	n/a	n/a	n/a	n/a	n/a	n/a	n/a	n/a	n/a	n/a	n/a	n/a	n/a	n/a	n/a	n/a	n/a	n/a	n/a	n/a	n/a	n/a	n/a	n/a	n/a	n/a	n/a	n/a	n/a	n/a	n/a	n/a	n/a	n/a	n/a	n/a	n/a	n/a	n/a	n/a	n/a	n/a	181.07181349978785	183.45192609983496	2.3399999999999928	183.45192609983496	183.45192609983496	183.45192609983496	183.45192609983496	183.45192609983496	183.45192609983496	right	1.340317300055176	184.8175886999816	0.0043111001141369	186.83200389984995	186.83200389984995	1.0	0.9313421002589166	187.7811039998196	187.7811039998196	187.7811039998196	187.7811039998196	187.7811039998196	187.7811039998196	4.0	1.4966935000848025	189.29612889979035	n/a	n/a	n/a	n/a	n/a	n/a	n/a	n/a	n/a	n/a	n/a	n/a	n/a	n/a	n/a	n/a	n/a	n/a	n/a	n/a	n/a	n/a	n/a	n/a	n/a	n/a	n/a	n/a	utils/practice/ScrambledFW_28M_NE_C.BMP	n/a	n/a	n/a	n/a	n/a	n/a	utils/practice/ScrambledBW_28M_NE_C.BMP	n/a	n/a	n/a	n/a	n/a	n/a	n/a	n/a	n/a	n/a	n/a	n/a	n/a	n/a	n/a	n/a	n/a	n/a	n/a	n/a	n/a	n/a	n/a	n/a	n/a	n/a	n/a	n/a	12	1	2023-02-01_18h39.33.684	test_final	2022.2.4	60.04332728732733	n/a
NimStim_Database/Images/37M_NE_C.BMP	utils/practice/ScrambledFW_24M_NE_C.BMP	utils/practice/ScrambledBW_24M_NE_C.BMP	utils/practice/real_prac7.jpg	utils/practice/real_prac14.jpg	n/a	0.0	4.0	4.0	9.0	n/a	n/a	n/a	n/a	n/a	n/a	n/a	n/a	n/a	n/a	n/a	n/a	n/a	n/a	n/a	n/a	n/a	n/a	n/a	n/a	n/a	n/a	n/a	n/a	n/a	n/a	n/a	n/a	n/a	n/a	n/a	n/a	n/a	n/a	n/a	n/a	n/a	n/a	n/a	n/a	n/a	n/a	n/a	n/a	n/a	n/a	n/a	n/a	n/a	191.31053939997216	193.82893469999544	2.46999999999999	193.82893469999544	193.82893469999544	193.82893469999544	193.82893469999544	193.82893469999544	193.82893469999544	right	1.7724852999672294	195.6223272997886	0.0030861000996083	197.6369719000068	197.6369719000068	3.0	0.398170999949798	198.0532079997938	198.0532079997938	198.0532079997938	198.0532079997938	198.0532079997938	198.0532079997938	4.0	0.1897834001574665	198.269682899816	n/a	n/a	n/a	n/a	n/a	n/a	n/a	n/a	n/a	n/a	n/a	n/a	n/a	n/a	n/a	n/a	n/a	n/a	n/a	n/a	n/a	n/a	n/a	n/a	n/a	n/a	n/a	n/a	utils/practice/ScrambledFW_24M_NE_C.BMP	n/a	n/a	n/a	n/a	n/a	n/a	utils/practice/ScrambledBW_24M_NE_C.BMP	n/a	n/a	n/a	n/a	n/a	n/a	n/a	n/a	n/a	n/a	n/a	n/a	n/a	n/a	n/a	n/a	n/a	n/a	n/a	n/a	n/a	n/a	n/a	n/a	n/a	n/a	n/a	n/a	12	1	2023-02-01_18h39.33.684	test_final	2022.2.4	60.04332728732733	n/a
NimStim_Database/Images/06F_NE_O.BMP	utils/practice/ScrambledFW_06F_NE_O.BMP	utils/practice/ScrambledBW_06F_NE_O.BMP	utils/practice/fake_prac2.jpg	utils/practice/real_prac15.jpg	n/a	0.0	5.0	5.0	2.0	n/a	n/a	n/a	n/a	n/a	n/a	n/a	n/a	n/a	n/a	n/a	n/a	n/a	n/a	n/a	n/a	n/a	n/a	n/a	n/a	n/a	n/a	n/a	n/a	n/a	n/a	n/a	n/a	n/a	n/a	n/a	n/a	n/a	n/a	n/a	n/a	n/a	n/a	n/a	n/a	n/a	n/a	n/a	n/a	n/a	n/a	n/a	n/a	n/a	200.2841711998917	202.44682769989595	2.1099999999999977	202.44682769989595	202.44682769989595	202.44682769989595	202.44682769989595	202.44682769989595	202.44682769989595	left	1.5787282001692802	204.0463341998402	0.004860799992457	206.0611744998023	206.0611744998023	3.0	0.3974591002333909	206.47719109989703	206.47719109989703	206.47719109989703	206.47719109989703	206.47719109989703	206.47719109989703	4.0	0.2882856002543121	206.79357009986416	n/a	n/a	n/a	n/a	n/a	n/a	n/a	n/a	n/a	n/a	n/a	n/a	n/a	n/a	n/a	n/a	n/a	n/a	n/a	n/a	n/a	n/a	n/a	n/a	n/a	n/a	n/a	n/a	utils/practice/ScrambledFW_06F_NE_O.BMP	n/a	n/a	n/a	n/a	n/a	n/a	utils/practice/ScrambledBW_06F_NE_O.BMP	n/a	n/a	n/a	n/a	n/a	n/a	n/a	n/a	n/a	n/a	n/a	n/a	n/a	n/a	n/a	n/a	n/a	n/a	n/a	n/a	n/a	n/a	n/a	n/a	n/a	n/a	n/a	n/a	12	1	2023-02-01_18h39.33.684	test_final	2022.2.4	60.04332728732733	n/a
NimStim_Database/Images/28M_NE_C.BMP	utils/practice/ScrambledFW_33M_NE_C.BMP	utils/practice/ScrambledBW_33M_NE_C.BMP	utils/practice/real_prac2.jpg	utils/practice/fake_prac16.jpg	n/a	0.0	6.0	6.0	13.0	n/a	n/a	n/a	n/a	n/a	n/a	n/a	n/a	n/a	n/a	n/a	n/a	n/a	n/a	n/a	n/a	n/a	n/a	n/a	n/a	n/a	n/a	n/a	n/a	n/a	n/a	n/a	n/a	n/a	n/a	n/a	n/a	n/a	n/a	n/a	n/a	n/a	n/a	n/a	n/a	n/a	n/a	n/a	n/a	n/a	n/a	n/a	n/a	n/a	208.80796119989827	210.9702160998713	2.129999999999997	210.9702160998713	210.9702160998713	210.9702160998713	210.9702160998713	210.9702160998713	210.9702160998713	right	1.5716043000575155	212.570498699788	0.0033742999657988	214.5847980999388	214.5847980999388	2.0	0.4090351001359522	215.01768739987165	215.01768739987165	215.01768739987165	215.01768739987165	215.01768739987165	215.01768739987165	1.0	0.1763548001181334	215.21757359988987	n/a	n/a	n/a	n/a	n/a	n/a	n/a	n/a	n/a	n/a	n/a	n/a	n/a	n/a	n/a	n/a	n/a	n/a	n/a	n/a	n/a	n/a	n/a	n/a	n/a	n/a	n/a	n/a	utils/practice/ScrambledFW_33M_NE_C.BMP	n/a	n/a	n/a	n/a	n/a	n/a	utils/practice/ScrambledBW_33M_NE_C.BMP	n/a	n/a	n/a	n/a	n/a	n/a	n/a	n/a	n/a	n/a	n/a	n/a	n/a	n/a	n/a	n/a	n/a	n/a	n/a	n/a	n/a	n/a	n/a	n/a	n/a	n/a	n/a	n/a	12	1	2023-02-01_18h39.33.684	test_final	2022.2.4	60.04332728732733	n/a
NimStim_Database/Images/15F_NE_O.BMP	utils/practice/ScrambledFW_08F_NE_O.BMP	utils/practice/ScrambledBW_08F_NE_O.BMP	utils/practice/real_prac4.jpg	utils/practice/fake_prac12.jpg	n/a	0.0	7.0	7.0	3.0	n/a	n/a	n/a	n/a	n/a	n/a	n/a	n/a	n/a	n/a	n/a	n/a	n/a	n/a	n/a	n/a	n/a	n/a	n/a	n/a	n/a	n/a	n/a	n/a	n/a	n/a	n/a	n/a	n/a	n/a	n/a	n/a	n/a	n/a	n/a	n/a	n/a	n/a	n/a	n/a	n/a	n/a	n/a	n/a	n/a	n/a	n/a	n/a	n/a	217.23165440000597	219.55469809984788	2.279999999999994	219.55469809984788	219.55469809984788	219.55469809984788	219.55469809984788	219.55469809984788	219.55469809984788	right	2.2272977002430707	221.8102900998201	0.0030029001645743	223.824727299856	223.824727299856	2.0	0.4710496000479907	224.32430569990535	224.32430569990535	224.32430569990535	224.32430569990535	224.32430569990535	224.32430569990535	4.0	0.2026544001419097	224.5573359997943	n/a	n/a	n/a	n/a	n/a	n/a	n/a	n/a	n/a	n/a	n/a	n/a	n/a	n/a	n/a	n/a	n/a	n/a	n/a	n/a	n/a	n/a	n/a	n/a	n/a	n/a	n/a	n/a	utils/practice/ScrambledFW_08F_NE_O.BMP	n/a	n/a	n/a	n/a	n/a	n/a	utils/practice/ScrambledBW_08F_NE_O.BMP	n/a	n/a	n/a	n/a	n/a	n/a	n/a	n/a	n/a	n/a	n/a	n/a	n/a	n/a	n/a	n/a	n/a	n/a	n/a	n/a	n/a	n/a	n/a	n/a	n/a	n/a	n/a	n/a	12	1	2023-02-01_18h39.33.684	test_final	2022.2.4	60.04332728732733	n/a
NimStim_Database/Images/11F_NE_C.BMP	utils/practice/ScrambledFW_37M_NE_C.BMP	utils/practice/ScrambledBW_37M_NE_C.BMP	utils/practice/real_prac16.jpg	utils/practice/fake_prac1.jpg	n/a	0.0	8.0	8.0	14.0	n/a	n/a	n/a	n/a	n/a	n/a	n/a	n/a	n/a	n/a	n/a	n/a	n/a	n/a	n/a	n/a	n/a	n/a	n/a	n/a	n/a	n/a	n/a	n/a	n/a	n/a	n/a	n/a	n/a	n/a	n/a	n/a	n/a	n/a	n/a	n/a	n/a	n/a	n/a	n/a	n/a	n/a	n/a	n/a	n/a	n/a	n/a	n/a	n/a	226.5718378999736	229.07358539989215	2.45999999999999	229.07358539989215	229.07358539989215	229.07358539989215	229.07358539989215	229.07358539989215	229.07358539989215	left	1.9803631003014743	231.0834073999431	0.0030308000277727	233.0978931998834	233.0978931998834	2.0	0.4589985001366585	233.58057579980232	233.58057579980232	233.58057579980232	233.58057579980232	233.58057579980232	233.58057579980232	4.0	0.1466423000674694	233.74717819993384	n/a	n/a	n/a	n/a	n/a	n/a	n/a	n/a	n/a	n/a	n/a	n/a	n/a	n/a	n/a	n/a	n/a	n/a	n/a	n/a	n/a	n/a	n/a	n/a	n/a	n/a	n/a	n/a	utils/practice/ScrambledFW_37M_NE_C.BMP	n/a	n/a	n/a	n/a	n/a	n/a	utils/practice/ScrambledBW_37M_NE_C.BMP	n/a	n/a	n/a	n/a	n/a	n/a	n/a	n/a	n/a	n/a	n/a	n/a	n/a	n/a	n/a	n/a	n/a	n/a	n/a	n/a	n/a	n/a	n/a	n/a	n/a	n/a	n/a	n/a	12	1	2023-02-01_18h39.33.684	test_final	2022.2.4	60.04332728732733	n/a
NimStim_Database/Images/43M_NE_O.BMP	utils/practice/ScrambledFW_11F_NE_C.BMP	utils/practice/ScrambledBW_11F_NE_C.BMP	utils/practice/real_prac11.jpg	utils/practice/fake_prac11.jpg	n/a	0.0	9.0	9.0	4.0	n/a	n/a	n/a	n/a	n/a	n/a	n/a	n/a	n/a	n/a	n/a	n/a	n/a	n/a	n/a	n/a	n/a	n/a	n/a	n/a	n/a	n/a	n/a	n/a	n/a	n/a	n/a	n/a	n/a	n/a	n/a	n/a	n/a	n/a	n/a	n/a	n/a	n/a	n/a	n/a	n/a	n/a	n/a	n/a	n/a	n/a	n/a	n/a	n/a	235.76167619996704	237.89949480001812	2.089999999999998	237.89949480001812	237.89949480001812	237.89949480001812	237.89949480001812	237.89949480001812	237.89949480001812	right	1.3699778001755476	239.29105859994888	0.0031459000892937	241.30553439981304	241.30553439981304	3.0	0.3852779001463204	241.7217855998315	241.7217855998315	241.7217855998315	241.7217855998315	241.7217855998315	241.7217855998315	1.0	0.0637076999992132	241.8050020998344	n/a	n/a	n/a	n/a	n/a	n/a	n/a	n/a	n/a	n/a	n/a	n/a	n/a	n/a	n/a	n/a	n/a	n/a	n/a	n/a	n/a	n/a	n/a	n/a	n/a	n/a	n/a	n/a	utils/practice/ScrambledFW_11F_NE_C.BMP	n/a	n/a	n/a	n/a	n/a	n/a	utils/practice/ScrambledBW_11F_NE_C.BMP	n/a	n/a	n/a	n/a	n/a	n/a	n/a	n/a	n/a	n/a	n/a	n/a	n/a	n/a	n/a	n/a	n/a	n/a	n/a	n/a	n/a	n/a	n/a	n/a	n/a	n/a	n/a	n/a	12	1	2023-02-01_18h39.33.684	test_final	2022.2.4	60.04332728732733	n/a
NimStim_Database/Images/28M_NE_O.BMP	utils/practice/ScrambledFW_12F_NE_C.BMP	utils/practice/ScrambledBW_12F_NE_C.BMP	utils/practice/fake_prac3.jpg	utils/practice/fake_prac10.jpg	n/a	0.0	10.0	10.0	5.0	n/a	n/a	n/a	n/a	n/a	n/a	n/a	n/a	n/a	n/a	n/a	n/a	n/a	n/a	n/a	n/a	n/a	n/a	n/a	n/a	n/a	n/a	n/a	n/a	n/a	n/a	n/a	n/a	n/a	n/a	n/a	n/a	n/a	n/a	n/a	n/a	n/a	n/a	n/a	n/a	n/a	n/a	n/a	n/a	n/a	n/a	n/a	n/a	n/a	243.81953999982213	246.31942959991284	2.45999999999999	246.31942959991284	246.31942959991284	246.31942959991284	246.31942959991284	246.31942959991284	246.31942959991284	left	2.1912842001765966	248.5307989998255	0.0025220001116394	250.54518369981088	250.54518369981088	2.0	0.4180161003023386	250.99486619979143	250.99486619979143	250.99486619979143	250.99486619979143	250.99486619979143	250.99486619979143	4.0	0.1424341001547873	251.16127679985948	n/a	n/a	n/a	n/a	n/a	n/a	n/a	n/a	n/a	n/a	n/a	n/a	n/a	n/a	n/a	n/a	n/a	n/a	n/a	n/a	n/a	n/a	n/a	n/a	n/a	n/a	n/a	n/a	utils/practice/ScrambledFW_12F_NE_C.BMP	n/a	n/a	n/a	n/a	n/a	n/a	utils/practice/ScrambledBW_12F_NE_C.BMP	n/a	n/a	n/a	n/a	n/a	n/a	n/a	n/a	n/a	n/a	n/a	n/a	n/a	n/a	n/a	n/a	n/a	n/a	n/a	n/a	n/a	n/a	n/a	n/a	n/a	n/a	n/a	n/a	12	1	2023-02-01_18h39.33.684	test_final	2022.2.4	60.04332728732733	n/a
NimStim_Database/Images/25M_NE_C.BMP	utils/practice/ScrambledFW_01F_NE_O.BMP	utils/practice/ScrambledBW_01F_NE_O.BMP	utils/practice/real_prac1.jpg	utils/practice/real_prac10.jpg	n/a	0.0	11.0	11.0	0.0	n/a	n/a	n/a	n/a	n/a	n/a	n/a	n/a	n/a	n/a	n/a	n/a	n/a	n/a	n/a	n/a	n/a	n/a	n/a	n/a	n/a	n/a	n/a	n/a	n/a	n/a	n/a	n/a	n/a	n/a	n/a	n/a	n/a	n/a	n/a	n/a	n/a	n/a	n/a	n/a	n/a	n/a	n/a	n/a	n/a	n/a	n/a	n/a	n/a	253.1755625999067	255.6118691000156	2.389999999999992	255.6118691000156	255.6118691000156	255.6118691000156	255.6118691000156	255.6118691000156	255.6118691000156	left	0.9421585001982749	256.5719408998266	0.0032760000322014	258.5864569998812	258.5864569998812	3.0	0.3887577999848872	259.00279119983315	259.00279119983315	259.00279119983315	259.00279119983315	259.00279119983315	259.00279119983315	4.0	0.127736700233072	259.1525178998709	n/a	n/a	n/a	n/a	n/a	n/a	n/a	n/a	n/a	n/a	n/a	n/a	n/a	n/a	n/a	n/a	n/a	n/a	n/a	n/a	n/a	n/a	n/a	n/a	n/a	n/a	n/a	n/a	utils/practice/ScrambledFW_01F_NE_O.BMP	n/a	n/a	n/a	n/a	n/a	n/a	utils/practice/ScrambledBW_01F_NE_O.BMP	n/a	n/a	n/a	n/a	n/a	n/a	n/a	n/a	n/a	n/a	n/a	n/a	n/a	n/a	n/a	n/a	n/a	n/a	n/a	n/a	n/a	n/a	n/a	n/a	n/a	n/a	n/a	n/a	12	1	2023-02-01_18h39.33.684	test_final	2022.2.4	60.04332728732733	n/a
NimStim_Database/Images/03F_NE_O.BMP	utils/practice/ScrambledFW_23M_NE_C.BMP	utils/practice/ScrambledBW_23M_NE_C.BMP	utils/practice/fake_prac7.jpg	utils/practice/real_prac6.jpg	n/a	0.0	12.0	12.0	8.0	n/a	n/a	n/a	n/a	n/a	n/a	n/a	n/a	n/a	n/a	n/a	n/a	n/a	n/a	n/a	n/a	n/a	n/a	n/a	n/a	n/a	n/a	n/a	n/a	n/a	n/a	n/a	n/a	n/a	n/a	n/a	n/a	n/a	n/a	n/a	n/a	n/a	n/a	n/a	n/a	n/a	n/a	n/a	n/a	n/a	n/a	n/a	n/a	n/a	261.1670282999985	263.4768190998584	2.2699999999999942	263.4768190998584	263.4768190998584	263.4768190998584	263.4768190998584	263.4768190998584	263.4768190998584	left	2.13710100017488	265.645428000018	0.0032651999499648	267.6598596998956	267.6598596998956	3.0	0.4011590001173317	268.09283089987	268.09283089987	268.09283089987	268.09283089987	268.09283089987	268.09283089987	4.0	0.1170632001012563	268.2426059998106	n/a	n/a	n/a	n/a	n/a	n/a	n/a	n/a	n/a	n/a	n/a	n/a	n/a	n/a	n/a	n/a	n/a	n/a	n/a	n/a	n/a	n/a	n/a	n/a	n/a	n/a	n/a	n/a	utils/practice/ScrambledFW_23M_NE_C.BMP	n/a	n/a	n/a	n/a	n/a	n/a	utils/practice/ScrambledBW_23M_NE_C.BMP	n/a	n/a	n/a	n/a	n/a	n/a	n/a	n/a	n/a	n/a	n/a	n/a	n/a	n/a	n/a	n/a	n/a	n/a	n/a	n/a	n/a	n/a	n/a	n/a	n/a	n/a	n/a	n/a	12	1	2023-02-01_18h39.33.684	test_final	2022.2.4	60.04332728732733	n/a
NimStim_Database/Images/24M_NE_C.BMP	utils/practice/ScrambledFW_43M_NE_O.BMP	utils/practice/ScrambledBW_43M_NE_O.BMP	utils/practice/fake_prac13.jpg	utils/practice/real_prac12.jpg	n/a	0.0	13.0	13.0	15.0	n/a	n/a	n/a	n/a	n/a	n/a	n/a	n/a	n/a	n/a	n/a	n/a	n/a	n/a	n/a	n/a	n/a	n/a	n/a	n/a	n/a	n/a	n/a	n/a	n/a	n/a	n/a	n/a	n/a	n/a	n/a	n/a	n/a	n/a	n/a	n/a	n/a	n/a	n/a	n/a	n/a	n/a	n/a	n/a	n/a	n/a	n/a	n/a	n/a	270.25707699987106	272.7183489999734	2.419999999999991	272.7183489999734	272.7183489999734	272.7183489999734	272.7183489999734	272.7183489999734	272.7183489999734	right	1.005390600068495	273.7532009999268	0.003672300139442	275.7677011999767	275.7677011999767	2.0	0.3785615002270788	276.1670270999893	276.1670270999893	276.1670270999893	276.1670270999893	276.1670270999893	276.1670270999893	4.0	0.0736871000844985	276.2671517999843	n/a	n/a	n/a	n/a	n/a	n/a	n/a	n/a	n/a	n/a	n/a	n/a	n/a	n/a	n/a	n/a	n/a	n/a	n/a	n/a	n/a	n/a	n/a	n/a	n/a	n/a	n/a	n/a	utils/practice/ScrambledFW_43M_NE_O.BMP	n/a	n/a	n/a	n/a	n/a	n/a	utils/practice/ScrambledBW_43M_NE_O.BMP	n/a	n/a	n/a	n/a	n/a	n/a	n/a	n/a	n/a	n/a	n/a	n/a	n/a	n/a	n/a	n/a	n/a	n/a	n/a	n/a	n/a	n/a	n/a	n/a	n/a	n/a	n/a	n/a	12	1	2023-02-01_18h39.33.684	test_final	2022.2.4	60.04332728732733	n/a
NimStim_Database/Images/08F_NE_O.BMP	utils/practice/ScrambledFW_15F_NE_O.BMP	utils/practice/ScrambledBW_15F_NE_O.BMP	utils/practice/fake_prac9.jpg	utils/practice/real_prac5.jpg	n/a	0.0	14.0	14.0	6.0	n/a	n/a	n/a	n/a	n/a	n/a	n/a	n/a	n/a	n/a	n/a	n/a	n/a	n/a	n/a	n/a	n/a	n/a	n/a	n/a	n/a	n/a	n/a	n/a	n/a	n/a	n/a	n/a	n/a	n/a	n/a	n/a	n/a	n/a	n/a	n/a	n/a	n/a	n/a	n/a	n/a	n/a	n/a	n/a	n/a	n/a	n/a	n/a	n/a	278.2815919998102	280.3758914999198	2.0599999999999987	280.3758914999198	280.3758914999198	280.3758914999198	280.3758914999198	280.3758914999198	280.3758914999198	right	0.9179428000934422	281.3115970999934	0.0025504000950604	283.3263876999263	283.3263876999263	3.0	0.3232348002493381	283.67558009992354	283.67558009992354	283.67558009992354	283.67558009992354	283.67558009992354	283.67558009992354	4.0	0.1004217001609504	283.8088775998913	n/a	n/a	n/a	n/a	n/a	n/a	n/a	n/a	n/a	n/a	n/a	n/a	n/a	n/a	n/a	n/a	n/a	n/a	n/a	n/a	n/a	n/a	n/a	n/a	n/a	n/a	n/a	n/a	utils/practice/ScrambledFW_15F_NE_O.BMP	n/a	n/a	n/a	n/a	n/a	n/a	utils/practice/ScrambledBW_15F_NE_O.BMP	n/a	n/a	n/a	n/a	n/a	n/a	n/a	n/a	n/a	n/a	n/a	n/a	n/a	n/a	n/a	n/a	n/a	n/a	n/a	n/a	n/a	n/a	n/a	n/a	n/a	n/a	n/a	n/a	12	1	2023-02-01_18h39.33.684	test_final	2022.2.4	60.04332728732733	n/a
NimStim_Database/Images/16F_NE_O.BMP	utils/practice/ScrambledFW_16F_NE_O.BMP	utils/practice/ScrambledBW_16F_NE_O.BMP	utils/practice/fake_prac6.jpg	utils/practice/fake_prac15.jpg	n/a	0.0	15.0	15.0	7.0	n/a	n/a	n/a	n/a	n/a	n/a	n/a	n/a	n/a	n/a	n/a	n/a	n/a	n/a	n/a	n/a	n/a	n/a	n/a	n/a	n/a	n/a	n/a	n/a	n/a	n/a	n/a	n/a	n/a	n/a	n/a	n/a	n/a	n/a	n/a	n/a	n/a	n/a	n/a	n/a	n/a	n/a	n/a	n/a	n/a	n/a	n/a	n/a	n/a	285.8231033999473	287.96222919994034	2.089999999999998	287.96222919994034	287.96222919994034	287.96222919994034	287.96222919994034	287.96222919994034	287.96222919994034	left	0.6920263001229614	288.6866688998416	0.0035614999942481	290.7010400998406	290.7010400998406	2.0	0.3843306000344455	291.1173982999753	291.1173982999753	291.1173982999753	291.1173982999753	291.1173982999753	291.1173982999753	1.0	0.1748031000606715	291.3169303999748	n/a	n/a	n/a	n/a	n/a	n/a	n/a	n/a	n/a	n/a	n/a	n/a	n/a	n/a	n/a	n/a	n/a	n/a	n/a	n/a	n/a	n/a	n/a	n/a	n/a	n/a	n/a	n/a	utils/practice/ScrambledFW_16F_NE_O.BMP	n/a	n/a	n/a	n/a	n/a	n/a	utils/practice/ScrambledBW_16F_NE_O.BMP	n/a	n/a	n/a	n/a	n/a	n/a	n/a	n/a	n/a	n/a	n/a	n/a	n/a	n/a	n/a	n/a	n/a	n/a	n/a	n/a	n/a	n/a	n/a	n/a	n/a	n/a	n/a	n/a	12	1	2023-02-01_18h39.33.684	test_final	2022.2.4	60.04332728732733	n/a
n/a	n/a	n/a	n/a	n/a	n/a	n/a	n/a	n/a	n/a	n/a	n/a	n/a	n/a	n/a	n/a	n/a	n/a	n/a	n/a	n/a	n/a	n/a	n/a	n/a	n/a	n/a	n/a	n/a	n/a	n/a	n/a	n/a	n/a	n/a	n/a	n/a	n/a	n/a	n/a	n/a	n/a	n/a	n/a	n/a	n/a	n/a	n/a	n/a	n/a	n/a	n/a	n/a	n/a	n/a	n/a	n/a	n/a	n/a	n/a	n/a	n/a	n/a	n/a	n/a	n/a	n/a	n/a	n/a	n/a	n/a	n/a	n/a	n/a	n/a	n/a	n/a	n/a	n/a	n/a	n/a	n/a	n/a	n/a	n/a	293.3316526999697	293.3316526999697	space	60.78353359992616	n/a	n/a	n/a	n/a	n/a	n/a	n/a	n/a	n/a	n/a	n/a	n/a	n/a	n/a	n/a	n/a	n/a	n/a	n/a	n/a	n/a	n/a	n/a	n/a	n/a	n/a	n/a	n/a	n/a	n/a	n/a	n/a	n/a	n/a	n/a	n/a	n/a	n/a	n/a	n/a	n/a	n/a	n/a	n/a	n/a	n/a	n/a	n/a	n/a	n/a	n/a	n/a	n/a	n/a	n/a	n/a	n/a	n/a	n/a	n/a	12	1	2023-02-01_18h39.33.684	test_final	2022.2.4	60.04332728732733	n/a
NimStim_Database/Images/12F_NE_C.BMP	utils/practice/ScrambledFW_03F_NE_O.BMP	utils/practice/ScrambledBW_03F_NE_O.BMP	utils/practice/real_prac9.jpg	utils/practice/real_prac13.jpg	n/a	n/a	n/a	n/a	n/a	0.0	0.0	0.0	1.0	n/a	n/a	n/a	n/a	0.0	0.0	0.0	0.0	n/a	n/a	n/a	n/a	n/a	n/a	n/a	n/a	n/a	n/a	n/a	n/a	n/a	n/a	n/a	n/a	n/a	n/a	n/a	n/a	n/a	n/a	n/a	n/a	n/a	n/a	n/a	n/a	n/a	n/a	n/a	n/a	n/a	n/a	n/a	n/a	n/a	354.1312445998192	356.4043099998962	2.2599999999999945	n/a	n/a	n/a	n/a	n/a	n/a	n/a	n/a	n/a	n/a	n/a	n/a	n/a	n/a	n/a	n/a	n/a	n/a	n/a	n/a	n/a	n/a	n/a	n/a	n/a	n/a	n/a	356.4043099998962	356.5215049998369	356.5215049998369	356.5497037000023	356.5497037000023	356.6147719998844	356.6147719998844	356.6147719998844	356.6147719998844	356.6147719998844	356.6147719998844	356.6147719998844	None	357.3616967999842	357.3616967999842	space	3.434135900111869	n/a	n/a	n/a	n/a	n/a	n/a	n/a	utils/practice/ScrambledFW_03F_NE_O.BMP	n/a	n/a	n/a	n/a	n/a	n/a	utils/practice/ScrambledBW_03F_NE_O.BMP	n/a	n/a	n/a	n/a	n/a	n/a	n/a	n/a	n/a	n/a	n/a	n/a	n/a	n/a	n/a	n/a	n/a	n/a	n/a	n/a	n/a	n/a	n/a	n/a	n/a	n/a	n/a	n/a	12	1	2023-02-01_18h39.33.684	test_final	2022.2.4	60.04332728732733	n/a
NimStim_Database/Images/12F_NE_C.BMP	utils/practice/ScrambledFW_03F_NE_O.BMP	utils/practice/ScrambledBW_03F_NE_O.BMP	utils/practice/real_prac9.jpg	utils/practice/real_prac13.jpg	n/a	n/a	n/a	n/a	n/a	0.0	0.0	0.0	1.0	n/a	n/a	n/a	n/a	n/a	n/a	n/a	n/a	n/a	n/a	n/a	n/a	n/a	n/a	n/a	n/a	n/a	n/a	n/a	n/a	n/a	n/a	n/a	n/a	n/a	n/a	n/a	n/a	n/a	n/a	n/a	n/a	n/a	n/a	n/a	n/a	n/a	n/a	n/a	n/a	n/a	n/a	n/a	n/a	n/a	n/a	n/a	n/a	n/a	n/a	n/a	n/a	n/a	n/a	n/a	n/a	n/a	n/a	n/a	n/a	n/a	n/a	n/a	n/a	n/a	n/a	n/a	n/a	n/a	n/a	360.8239454999566	n/a	n/a	n/a	n/a	n/a	n/a	n/a	n/a	n/a	n/a	n/a	n/a	n/a	n/a	n/a	n/a	n/a	n/a	n/a	n/a	n/a	n/a	n/a	n/a	n/a	n/a	n/a	n/a	utils/practice/ScrambledFW_03F_NE_O.BMP	n/a	n/a	n/a	n/a	n/a	n/a	utils/practice/ScrambledBW_03F_NE_O.BMP	n/a	n/a	n/a	n/a	n/a	n/a	n/a	n/a	n/a	n/a	n/a	n/a	n/a	n/a	n/a	n/a	n/a	n/a	n/a	n/a	n/a	n/a	n/a	n/a	n/a	n/a	n/a	n/a	12	1	2023-02-01_18h39.33.684	test_final	2022.2.4	60.04332728732733	n/a
NimStim_Database/Images/24M_NE_C.BMP	utils/practice/ScrambledFW_43M_NE_O.BMP	utils/practice/ScrambledBW_43M_NE_O.BMP	utils/practice/fake_prac13.jpg	utils/practice/real_prac12.jpg	n/a	n/a	n/a	n/a	n/a	0.0	1.0	1.0	15.0	n/a	n/a	n/a	n/a	0.0	0.0	0.0	0.0	n/a	n/a	n/a	n/a	n/a	n/a	n/a	n/a	n/a	n/a	n/a	n/a	n/a	n/a	n/a	n/a	n/a	n/a	n/a	n/a	n/a	n/a	n/a	n/a	n/a	n/a	n/a	n/a	n/a	n/a	n/a	n/a	n/a	n/a	n/a	n/a	n/a	362.8382956997957	365.0215391998645	2.179999999999996	n/a	n/a	n/a	n/a	n/a	n/a	n/a	n/a	n/a	n/a	n/a	n/a	n/a	n/a	n/a	n/a	n/a	n/a	n/a	n/a	n/a	n/a	n/a	n/a	n/a	n/a	n/a	365.0215391998645	365.1211953999009	365.1211953999009	365.1540409999434	365.1540409999434	365.2118979999796	365.2118979999796	365.2118979999796	365.2118979999796	365.2118979999796	365.2118979999796	365.2118979999796	None	365.95156399998814	365.95156399998814	space	7.412977600004524	n/a	n/a	n/a	n/a	n/a	n/a	n/a	utils/practice/ScrambledFW_43M_NE_O.BMP	n/a	n/a	n/a	n/a	n/a	n/a	utils/practice/ScrambledBW_43M_NE_O.BMP	n/a	n/a	n/a	n/a	n/a	n/a	n/a	n/a	n/a	n/a	n/a	n/a	n/a	n/a	n/a	n/a	n/a	n/a	n/a	n/a	n/a	n/a	n/a	n/a	n/a	n/a	n/a	n/a	12	1	2023-02-01_18h39.33.684	test_final	2022.2.4	60.04332728732733	n/a
NimStim_Database/Images/24M_NE_C.BMP	utils/practice/ScrambledFW_43M_NE_O.BMP	utils/practice/ScrambledBW_43M_NE_O.BMP	utils/practice/fake_prac13.jpg	utils/practice/real_prac12.jpg	n/a	n/a	n/a	n/a	n/a	0.0	1.0	1.0	15.0	n/a	n/a	n/a	n/a	n/a	n/a	n/a	n/a	n/a	n/a	n/a	n/a	n/a	n/a	n/a	n/a	n/a	n/a	n/a	n/a	n/a	n/a	n/a	n/a	n/a	n/a	n/a	n/a	n/a	n/a	n/a	n/a	n/a	n/a	n/a	n/a	n/a	n/a	n/a	n/a	n/a	n/a	n/a	n/a	n/a	n/a	n/a	n/a	n/a	n/a	n/a	n/a	n/a	n/a	n/a	n/a	n/a	n/a	n/a	n/a	n/a	n/a	n/a	n/a	n/a	n/a	n/a	n/a	n/a	n/a	373.3934987999965	n/a	n/a	n/a	n/a	n/a	n/a	n/a	n/a	n/a	n/a	n/a	n/a	n/a	n/a	n/a	n/a	n/a	n/a	n/a	n/a	n/a	n/a	n/a	n/a	n/a	n/a	n/a	n/a	utils/practice/ScrambledFW_43M_NE_O.BMP	n/a	n/a	n/a	n/a	n/a	n/a	utils/practice/ScrambledBW_43M_NE_O.BMP	n/a	n/a	n/a	n/a	n/a	n/a	n/a	n/a	n/a	n/a	n/a	n/a	n/a	n/a	n/a	n/a	n/a	n/a	n/a	n/a	n/a	n/a	n/a	n/a	n/a	n/a	n/a	n/a	12	1	2023-02-01_18h39.33.684	test_final	2022.2.4	60.04332728732733	n/a
NimStim_Database/Images/06F_NE_O.BMP	utils/practice/ScrambledFW_06F_NE_O.BMP	utils/practice/ScrambledBW_06F_NE_O.BMP	utils/practice/fake_prac2.jpg	utils/practice/real_prac15.jpg	n/a	n/a	n/a	n/a	n/a	0.0	2.0	2.0	2.0	0.0	0.0	0.0	0.0	n/a	n/a	n/a	n/a	n/a	n/a	n/a	n/a	n/a	n/a	n/a	n/a	n/a	n/a	n/a	n/a	n/a	n/a	n/a	n/a	n/a	n/a	n/a	n/a	n/a	n/a	n/a	n/a	n/a	n/a	n/a	n/a	n/a	n/a	n/a	n/a	n/a	n/a	n/a	n/a	n/a	375.40797059983015	377.7917762999423	2.369999999999992	n/a	n/a	n/a	n/a	n/a	n/a	n/a	n/a	n/a	n/a	n/a	n/a	n/a	n/a	n/a	n/a	n/a	n/a	n/a	n/a	n/a	n/a	n/a	n/a	n/a	n/a	n/a	377.7917762999423	377.9072848998476	377.9072848998476	377.9393668998964	377.9393668998964	378.00517309992574	378.00517309992574	378.00517309992574	378.00517309992574	378.00517309992574	378.00517309992574	378.00517309992574	right	n/a	n/a	n/a	n/a	0.0875660001765936	378.12159159989096	n/a	n/a	n/a	n/a	n/a	utils/practice/ScrambledFW_06F_NE_O.BMP	n/a	n/a	n/a	n/a	n/a	n/a	utils/practice/ScrambledBW_06F_NE_O.BMP	n/a	n/a	n/a	n/a	n/a	n/a	n/a	n/a	n/a	n/a	n/a	n/a	n/a	n/a	n/a	n/a	n/a	n/a	n/a	n/a	n/a	n/a	n/a	n/a	n/a	n/a	n/a	n/a	12	1	2023-02-01_18h39.33.684	test_final	2022.2.4	60.04332728732733	n/a
NimStim_Database/Images/06F_NE_O.BMP	utils/practice/ScrambledFW_06F_NE_O.BMP	utils/practice/ScrambledBW_06F_NE_O.BMP	utils/practice/fake_prac2.jpg	utils/practice/real_prac15.jpg	n/a	n/a	n/a	n/a	n/a	0.0	2.0	2.0	2.0	n/a	n/a	n/a	n/a	n/a	n/a	n/a	n/a	0.0	0.0	0.0	0.0	n/a	n/a	n/a	n/a	n/a	n/a	n/a	n/a	n/a	n/a	n/a	n/a	n/a	n/a	n/a	n/a	n/a	n/a	n/a	n/a	n/a	n/a	n/a	n/a	n/a	n/a	n/a	n/a	n/a	n/a	n/a	n/a	n/a	n/a	n/a	n/a	n/a	n/a	n/a	n/a	n/a	n/a	n/a	n/a	n/a	n/a	379.1370802999008	379.1370802999008	3.0	2.312100100098178	381.4679703998845	381.4679703998845	381.4679703998845	381.4679703998845	381.4679703998845	381.4679703998845	4.0	0.2132745000999421	n/a	n/a	n/a	n/a	n/a	n/a	n/a	n/a	n/a	n/a	n/a	n/a	n/a	n/a	n/a	n/a	n/a	n/a	n/a	n/a	n/a	n/a	n/a	n/a	n/a	n/a	n/a	n/a	n/a	utils/practice/ScrambledFW_06F_NE_O.BMP	n/a	n/a	n/a	n/a	n/a	n/a	utils/practice/ScrambledBW_06F_NE_O.BMP	n/a	n/a	n/a	n/a	n/a	n/a	n/a	n/a	n/a	n/a	n/a	n/a	n/a	n/a	n/a	n/a	n/a	n/a	n/a	n/a	n/a	n/a	n/a	n/a	n/a	n/a	n/a	n/a	12	1	2023-02-01_18h39.33.684	test_final	2022.2.4	60.04332728732733	n/a
NimStim_Database/Images/06F_NE_O.BMP	utils/practice/ScrambledFW_06F_NE_O.BMP	utils/practice/ScrambledBW_06F_NE_O.BMP	utils/practice/fake_prac2.jpg	utils/practice/real_prac15.jpg	n/a	n/a	n/a	n/a	n/a	0.0	2.0	2.0	2.0	n/a	n/a	n/a	n/a	n/a	n/a	n/a	n/a	n/a	n/a	n/a	n/a	n/a	n/a	n/a	n/a	n/a	n/a	n/a	n/a	n/a	n/a	n/a	n/a	n/a	n/a	n/a	n/a	n/a	n/a	n/a	n/a	n/a	n/a	n/a	n/a	n/a	n/a	n/a	n/a	n/a	n/a	n/a	n/a	n/a	n/a	n/a	n/a	n/a	n/a	n/a	n/a	n/a	n/a	n/a	n/a	n/a	n/a	n/a	n/a	n/a	n/a	n/a	n/a	n/a	n/a	n/a	n/a	n/a	n/a	381.7010533998255	n/a	n/a	n/a	n/a	n/a	n/a	n/a	n/a	n/a	n/a	n/a	n/a	n/a	n/a	n/a	n/a	n/a	n/a	n/a	n/a	n/a	n/a	n/a	n/a	n/a	n/a	n/a	n/a	utils/practice/ScrambledFW_06F_NE_O.BMP	n/a	n/a	n/a	n/a	n/a	n/a	utils/practice/ScrambledBW_06F_NE_O.BMP	n/a	n/a	n/a	n/a	n/a	n/a	n/a	n/a	n/a	n/a	n/a	n/a	n/a	n/a	n/a	n/a	n/a	n/a	n/a	n/a	n/a	n/a	n/a	n/a	n/a	n/a	n/a	n/a	12	1	2023-02-01_18h39.33.684	test_final	2022.2.4	60.04332728732733	n/a
NimStim_Database/Images/25M_NE_C.BMP	utils/practice/ScrambledFW_01F_NE_O.BMP	utils/practice/ScrambledBW_01F_NE_O.BMP	utils/practice/real_prac1.jpg	utils/practice/real_prac10.jpg	n/a	n/a	n/a	n/a	n/a	0.0	3.0	3.0	0.0	0.0	0.0	0.0	0.0	n/a	n/a	n/a	n/a	n/a	n/a	n/a	n/a	n/a	n/a	n/a	n/a	n/a	n/a	n/a	n/a	n/a	n/a	n/a	n/a	n/a	n/a	n/a	n/a	n/a	n/a	n/a	n/a	n/a	n/a	n/a	n/a	n/a	n/a	n/a	n/a	n/a	n/a	n/a	n/a	n/a	383.7153824998532	385.7322994999122	2.0	n/a	n/a	n/a	n/a	n/a	n/a	n/a	n/a	n/a	n/a	n/a	n/a	n/a	n/a	n/a	n/a	n/a	n/a	n/a	n/a	n/a	n/a	n/a	n/a	n/a	n/a	n/a	385.7322994999122	385.8630911000073	385.8630911000073	385.9017051998526	385.9017051998526	385.96261569997296	385.96261569997296	385.96261569997296	385.96261569997296	385.96261569997296	385.96261569997296	385.96261569997296	left	n/a	n/a	n/a	n/a	0.6207356001250446	386.6122617998626	n/a	n/a	n/a	n/a	n/a	utils/practice/ScrambledFW_01F_NE_O.BMP	n/a	n/a	n/a	n/a	n/a	n/a	utils/practice/ScrambledBW_01F_NE_O.BMP	n/a	n/a	n/a	n/a	n/a	n/a	n/a	n/a	n/a	n/a	n/a	n/a	n/a	n/a	n/a	n/a	n/a	n/a	n/a	n/a	n/a	n/a	n/a	n/a	n/a	n/a	n/a	n/a	12	1	2023-02-01_18h39.33.684	test_final	2022.2.4	60.04332728732733	n/a
NimStim_Database/Images/25M_NE_C.BMP	utils/practice/ScrambledFW_01F_NE_O.BMP	utils/practice/ScrambledBW_01F_NE_O.BMP	utils/practice/real_prac1.jpg	utils/practice/real_prac10.jpg	n/a	n/a	n/a	n/a	n/a	0.0	3.0	3.0	0.0	n/a	n/a	n/a	n/a	n/a	n/a	n/a	n/a	0.0	0.0	0.0	0.0	n/a	n/a	n/a	n/a	n/a	n/a	n/a	n/a	n/a	n/a	n/a	n/a	n/a	n/a	n/a	n/a	n/a	n/a	n/a	n/a	n/a	n/a	n/a	n/a	n/a	n/a	n/a	n/a	n/a	n/a	n/a	n/a	n/a	n/a	n/a	n/a	n/a	n/a	n/a	n/a	n/a	n/a	n/a	n/a	n/a	n/a	387.6277098997962	387.6277098997962	4.0	1.2573041000869123	388.9096144000068	388.9096144000068	388.9096144000068	388.9096144000068	388.9096144000068	388.9096144000068	1.0	0.4045134000480175	n/a	n/a	n/a	n/a	n/a	n/a	n/a	n/a	n/a	n/a	n/a	n/a	n/a	n/a	n/a	n/a	n/a	n/a	n/a	n/a	n/a	n/a	n/a	n/a	n/a	n/a	n/a	n/a	n/a	utils/practice/ScrambledFW_01F_NE_O.BMP	n/a	n/a	n/a	n/a	n/a	n/a	utils/practice/ScrambledBW_01F_NE_O.BMP	n/a	n/a	n/a	n/a	n/a	n/a	n/a	n/a	n/a	n/a	n/a	n/a	n/a	n/a	n/a	n/a	n/a	n/a	n/a	n/a	n/a	n/a	n/a	n/a	n/a	n/a	n/a	n/a	12	1	2023-02-01_18h39.33.684	test_final	2022.2.4	60.04332728732733	n/a
NimStim_Database/Images/25M_NE_C.BMP	utils/practice/ScrambledFW_01F_NE_O.BMP	utils/practice/ScrambledBW_01F_NE_O.BMP	utils/practice/real_prac1.jpg	utils/practice/real_prac10.jpg	n/a	n/a	n/a	n/a	n/a	0.0	3.0	3.0	0.0	n/a	n/a	n/a	n/a	n/a	n/a	n/a	n/a	n/a	n/a	n/a	n/a	n/a	n/a	n/a	n/a	n/a	n/a	n/a	n/a	n/a	n/a	n/a	n/a	n/a	n/a	n/a	n/a	n/a	n/a	n/a	n/a	n/a	n/a	n/a	n/a	n/a	n/a	n/a	n/a	n/a	n/a	n/a	n/a	n/a	n/a	n/a	n/a	n/a	n/a	n/a	n/a	n/a	n/a	n/a	n/a	n/a	n/a	n/a	n/a	n/a	n/a	n/a	n/a	n/a	n/a	n/a	n/a	n/a	n/a	389.3425113998819	n/a	n/a	n/a	n/a	n/a	n/a	n/a	n/a	n/a	n/a	n/a	n/a	n/a	n/a	n/a	n/a	n/a	n/a	n/a	n/a	n/a	n/a	n/a	n/a	n/a	n/a	n/a	n/a	utils/practice/ScrambledFW_01F_NE_O.BMP	n/a	n/a	n/a	n/a	n/a	n/a	utils/practice/ScrambledBW_01F_NE_O.BMP	n/a	n/a	n/a	n/a	n/a	n/a	n/a	n/a	n/a	n/a	n/a	n/a	n/a	n/a	n/a	n/a	n/a	n/a	n/a	n/a	n/a	n/a	n/a	n/a	n/a	n/a	n/a	n/a	12	1	2023-02-01_18h39.33.684	test_final	2022.2.4	60.04332728732733	n/a
NimStim_Database/Images/43M_NE_O.BMP	utils/practice/ScrambledFW_11F_NE_C.BMP	utils/practice/ScrambledBW_11F_NE_C.BMP	utils/practice/real_prac11.jpg	utils/practice/fake_prac11.jpg	n/a	n/a	n/a	n/a	n/a	0.0	4.0	4.0	4.0	0.0	0.0	0.0	0.0	n/a	n/a	n/a	n/a	n/a	n/a	n/a	n/a	n/a	n/a	n/a	n/a	n/a	n/a	n/a	n/a	n/a	n/a	n/a	n/a	n/a	n/a	n/a	n/a	n/a	n/a	n/a	n/a	n/a	n/a	n/a	n/a	n/a	n/a	n/a	n/a	n/a	n/a	n/a	n/a	n/a	391.3569753000047	393.3781238999218	2.0	n/a	n/a	n/a	n/a	n/a	n/a	n/a	n/a	n/a	n/a	n/a	n/a	n/a	n/a	n/a	n/a	n/a	n/a	n/a	n/a	n/a	n/a	n/a	n/a	n/a	n/a	n/a	393.3781238999218	393.5248836998362	393.5248836998362	393.5568082998507	393.5568082998507	393.614868799923	393.614868799923	393.614868799923	393.614868799923	393.614868799923	393.614868799923	393.614868799923	left	n/a	n/a	n/a	n/a	0.5927545002195984	394.237198199844	n/a	n/a	n/a	n/a	n/a	utils/practice/ScrambledFW_11F_NE_C.BMP	n/a	n/a	n/a	n/a	n/a	n/a	utils/practice/ScrambledBW_11F_NE_C.BMP	n/a	n/a	n/a	n/a	n/a	n/a	n/a	n/a	n/a	n/a	n/a	n/a	n/a	n/a	n/a	n/a	n/a	n/a	n/a	n/a	n/a	n/a	n/a	n/a	n/a	n/a	n/a	n/a	12	1	2023-02-01_18h39.33.684	test_final	2022.2.4	60.04332728732733	n/a
NimStim_Database/Images/43M_NE_O.BMP	utils/practice/ScrambledFW_11F_NE_C.BMP	utils/practice/ScrambledBW_11F_NE_C.BMP	utils/practice/real_prac11.jpg	utils/practice/fake_prac11.jpg	n/a	n/a	n/a	n/a	n/a	0.0	4.0	4.0	4.0	n/a	n/a	n/a	n/a	n/a	n/a	n/a	n/a	0.0	0.0	0.0	0.0	n/a	n/a	n/a	n/a	n/a	n/a	n/a	n/a	n/a	n/a	n/a	n/a	n/a	n/a	n/a	n/a	n/a	n/a	n/a	n/a	n/a	n/a	n/a	n/a	n/a	n/a	n/a	n/a	n/a	n/a	n/a	n/a	n/a	n/a	n/a	n/a	n/a	n/a	n/a	n/a	n/a	n/a	n/a	n/a	n/a	n/a	395.2527844000142	395.2527844000142	2.0	0.8923363001085818	396.1685236999765	396.1685236999765	396.1685236999765	396.1685236999765	396.1685236999765	396.1685236999765	1.0	0.2441806001588702	n/a	n/a	n/a	n/a	n/a	n/a	n/a	n/a	n/a	n/a	n/a	n/a	n/a	n/a	n/a	n/a	n/a	n/a	n/a	n/a	n/a	n/a	n/a	n/a	n/a	n/a	n/a	n/a	n/a	utils/practice/ScrambledFW_11F_NE_C.BMP	n/a	n/a	n/a	n/a	n/a	n/a	utils/practice/ScrambledBW_11F_NE_C.BMP	n/a	n/a	n/a	n/a	n/a	n/a	n/a	n/a	n/a	n/a	n/a	n/a	n/a	n/a	n/a	n/a	n/a	n/a	n/a	n/a	n/a	n/a	n/a	n/a	n/a	n/a	n/a	n/a	12	1	2023-02-01_18h39.33.684	test_final	2022.2.4	60.04332728732733	n/a
NimStim_Database/Images/43M_NE_O.BMP	utils/practice/ScrambledFW_11F_NE_C.BMP	utils/practice/ScrambledBW_11F_NE_C.BMP	utils/practice/real_prac11.jpg	utils/practice/fake_prac11.jpg	n/a	n/a	n/a	n/a	n/a	0.0	4.0	4.0	4.0	n/a	n/a	n/a	n/a	n/a	n/a	n/a	n/a	n/a	n/a	n/a	n/a	n/a	n/a	n/a	n/a	n/a	n/a	n/a	n/a	n/a	n/a	n/a	n/a	n/a	n/a	n/a	n/a	n/a	n/a	n/a	n/a	n/a	n/a	n/a	n/a	n/a	n/a	n/a	n/a	n/a	n/a	n/a	n/a	n/a	n/a	n/a	n/a	n/a	n/a	n/a	n/a	n/a	n/a	n/a	n/a	n/a	n/a	n/a	n/a	n/a	n/a	n/a	n/a	n/a	n/a	n/a	n/a	n/a	n/a	396.4348736999091	n/a	n/a	n/a	n/a	n/a	n/a	n/a	n/a	n/a	n/a	n/a	n/a	n/a	n/a	n/a	n/a	n/a	n/a	n/a	n/a	n/a	n/a	n/a	n/a	n/a	n/a	n/a	n/a	utils/practice/ScrambledFW_11F_NE_C.BMP	n/a	n/a	n/a	n/a	n/a	n/a	utils/practice/ScrambledBW_11F_NE_C.BMP	n/a	n/a	n/a	n/a	n/a	n/a	n/a	n/a	n/a	n/a	n/a	n/a	n/a	n/a	n/a	n/a	n/a	n/a	n/a	n/a	n/a	n/a	n/a	n/a	n/a	n/a	n/a	n/a	12	1	2023-02-01_18h39.33.684	test_final	2022.2.4	60.04332728732733	n/a
NimStim_Database/Images/08F_NE_O.BMP	utils/practice/ScrambledFW_15F_NE_O.BMP	utils/practice/ScrambledBW_15F_NE_O.BMP	utils/practice/fake_prac9.jpg	utils/practice/real_prac5.jpg	n/a	n/a	n/a	n/a	n/a	0.0	5.0	5.0	6.0	n/a	n/a	n/a	n/a	0.0	0.0	0.0	0.0	n/a	n/a	n/a	n/a	n/a	n/a	n/a	n/a	n/a	n/a	n/a	n/a	n/a	n/a	n/a	n/a	n/a	n/a	n/a	n/a	n/a	n/a	n/a	n/a	n/a	n/a	n/a	n/a	n/a	n/a	n/a	n/a	n/a	n/a	n/a	n/a	n/a	398.4493817000184	400.5824517998845	2.119999999999997	n/a	n/a	n/a	n/a	n/a	n/a	n/a	n/a	n/a	n/a	n/a	n/a	n/a	n/a	n/a	n/a	n/a	n/a	n/a	n/a	n/a	n/a	n/a	n/a	n/a	n/a	n/a	400.5824517998845	400.7487254999578	400.7487254999578	400.78133749985136	400.78133749985136	400.8390143997967	400.8390143997967	400.8390143997967	400.8390143997967	400.8390143997967	400.8390143997967	400.8390143997967	None	401.57911179983057	401.57911179983057	space	1.1721698001492769	n/a	n/a	n/a	n/a	n/a	n/a	n/a	utils/practice/ScrambledFW_15F_NE_O.BMP	n/a	n/a	n/a	n/a	n/a	n/a	utils/practice/ScrambledBW_15F_NE_O.BMP	n/a	n/a	n/a	n/a	n/a	n/a	n/a	n/a	n/a	n/a	n/a	n/a	n/a	n/a	n/a	n/a	n/a	n/a	n/a	n/a	n/a	n/a	n/a	n/a	n/a	n/a	n/a	n/a	12	1	2023-02-01_18h39.33.684	test_final	2022.2.4	60.04332728732733	n/a
NimStim_Database/Images/08F_NE_O.BMP	utils/practice/ScrambledFW_15F_NE_O.BMP	utils/practice/ScrambledBW_15F_NE_O.BMP	utils/practice/fake_prac9.jpg	utils/practice/real_prac5.jpg	n/a	n/a	n/a	n/a	n/a	0.0	5.0	5.0	6.0	n/a	n/a	n/a	n/a	n/a	n/a	n/a	n/a	n/a	n/a	n/a	n/a	n/a	n/a	n/a	n/a	n/a	n/a	n/a	n/a	n/a	n/a	n/a	n/a	n/a	n/a	n/a	n/a	n/a	n/a	n/a	n/a	n/a	n/a	n/a	n/a	n/a	n/a	n/a	n/a	n/a	n/a	n/a	n/a	n/a	n/a	n/a	n/a	n/a	n/a	n/a	n/a	n/a	n/a	n/a	n/a	n/a	n/a	n/a	n/a	n/a	n/a	n/a	n/a	n/a	n/a	n/a	n/a	n/a	n/a	402.7777724999469	n/a	n/a	n/a	n/a	n/a	n/a	n/a	n/a	n/a	n/a	n/a	n/a	n/a	n/a	n/a	n/a	n/a	n/a	n/a	n/a	n/a	n/a	n/a	n/a	n/a	n/a	n/a	n/a	utils/practice/ScrambledFW_15F_NE_O.BMP	n/a	n/a	n/a	n/a	n/a	n/a	utils/practice/ScrambledBW_15F_NE_O.BMP	n/a	n/a	n/a	n/a	n/a	n/a	n/a	n/a	n/a	n/a	n/a	n/a	n/a	n/a	n/a	n/a	n/a	n/a	n/a	n/a	n/a	n/a	n/a	n/a	n/a	n/a	n/a	n/a	12	1	2023-02-01_18h39.33.684	test_final	2022.2.4	60.04332728732733	n/a
NimStim_Database/Images/37M_NE_C.BMP	utils/practice/ScrambledFW_24M_NE_C.BMP	utils/practice/ScrambledBW_24M_NE_C.BMP	utils/practice/real_prac7.jpg	utils/practice/real_prac14.jpg	n/a	n/a	n/a	n/a	n/a	0.0	6.0	6.0	9.0	0.0	0.0	0.0	0.0	n/a	n/a	n/a	n/a	n/a	n/a	n/a	n/a	n/a	n/a	n/a	n/a	n/a	n/a	n/a	n/a	n/a	n/a	n/a	n/a	n/a	n/a	n/a	n/a	n/a	n/a	n/a	n/a	n/a	n/a	n/a	n/a	n/a	n/a	n/a	n/a	n/a	n/a	n/a	n/a	n/a	404.7921914998442	407.1093706998509	2.3099999999999934	n/a	n/a	n/a	n/a	n/a	n/a	n/a	n/a	n/a	n/a	n/a	n/a	n/a	n/a	n/a	n/a	n/a	n/a	n/a	n/a	n/a	n/a	n/a	n/a	n/a	n/a	n/a	407.1093706998509	407.2250638999976	407.2250638999976	407.25692259985954	407.25692259985954	407.3151997998357	407.3151997998357	407.3151997998357	407.3151997998357	407.3151997998357	407.3151997998357	407.3151997998357	left	n/a	n/a	n/a	n/a	0.4999400002416223	407.8388036999386	408.8378426998388	n/a	n/a	n/a	n/a	utils/practice/ScrambledFW_24M_NE_C.BMP	n/a	n/a	n/a	n/a	n/a	n/a	utils/practice/ScrambledBW_24M_NE_C.BMP	n/a	n/a	n/a	n/a	n/a	n/a	n/a	n/a	n/a	n/a	n/a	n/a	n/a	n/a	n/a	n/a	n/a	n/a	n/a	n/a	n/a	n/a	n/a	n/a	n/a	n/a	n/a	n/a	12	1	2023-02-01_18h39.33.684	test_final	2022.2.4	60.04332728732733	n/a
NimStim_Database/Images/37M_NE_C.BMP	utils/practice/ScrambledFW_24M_NE_C.BMP	utils/practice/ScrambledBW_24M_NE_C.BMP	utils/practice/real_prac7.jpg	utils/practice/real_prac14.jpg	n/a	n/a	n/a	n/a	n/a	0.0	6.0	6.0	9.0	n/a	n/a	n/a	n/a	n/a	n/a	n/a	n/a	0.0	0.0	0.0	0.0	n/a	n/a	n/a	n/a	n/a	n/a	n/a	n/a	n/a	n/a	n/a	n/a	n/a	n/a	n/a	n/a	n/a	n/a	n/a	n/a	n/a	n/a	n/a	n/a	n/a	n/a	n/a	n/a	n/a	n/a	n/a	n/a	n/a	n/a	n/a	n/a	n/a	n/a	n/a	n/a	n/a	n/a	n/a	n/a	n/a	n/a	408.8378426998388	408.8378426998388	2.0	1.210824300069362	410.0698886997998	410.0698886997998	410.0698886997998	410.0698886997998	410.0698886997998	410.0698886997998	4.0	0.5003601999487728	n/a	n/a	n/a	n/a	n/a	n/a	n/a	n/a	n/a	n/a	n/a	n/a	n/a	n/a	n/a	n/a	n/a	n/a	n/a	n/a	n/a	n/a	n/a	n/a	n/a	n/a	n/a	n/a	n/a	utils/practice/ScrambledFW_24M_NE_C.BMP	n/a	n/a	n/a	n/a	n/a	n/a	utils/practice/ScrambledBW_24M_NE_C.BMP	n/a	n/a	n/a	n/a	n/a	n/a	n/a	n/a	n/a	n/a	n/a	n/a	n/a	n/a	n/a	n/a	n/a	n/a	n/a	n/a	n/a	n/a	n/a	n/a	n/a	n/a	n/a	n/a	12	1	2023-02-01_18h39.33.684	test_final	2022.2.4	60.04332728732733	n/a
NimStim_Database/Images/37M_NE_C.BMP	utils/practice/ScrambledFW_24M_NE_C.BMP	utils/practice/ScrambledBW_24M_NE_C.BMP	utils/practice/real_prac7.jpg	utils/practice/real_prac14.jpg	n/a	n/a	n/a	n/a	n/a	0.0	6.0	6.0	9.0	n/a	n/a	n/a	n/a	n/a	n/a	n/a	n/a	n/a	n/a	n/a	n/a	n/a	n/a	n/a	n/a	n/a	n/a	n/a	n/a	n/a	n/a	n/a	n/a	n/a	n/a	n/a	n/a	n/a	n/a	n/a	n/a	n/a	n/a	n/a	n/a	n/a	n/a	n/a	n/a	n/a	n/a	n/a	n/a	n/a	n/a	n/a	n/a	n/a	n/a	n/a	n/a	n/a	n/a	n/a	n/a	n/a	n/a	n/a	n/a	n/a	n/a	n/a	n/a	n/a	n/a	n/a	n/a	n/a	n/a	410.60262799984775	n/a	n/a	n/a	n/a	n/a	n/a	n/a	n/a	n/a	n/a	n/a	n/a	n/a	n/a	n/a	n/a	n/a	n/a	n/a	n/a	n/a	n/a	n/a	n/a	n/a	n/a	n/a	n/a	utils/practice/ScrambledFW_24M_NE_C.BMP	n/a	n/a	n/a	n/a	n/a	n/a	utils/practice/ScrambledBW_24M_NE_C.BMP	n/a	n/a	n/a	n/a	n/a	n/a	n/a	n/a	n/a	n/a	n/a	n/a	n/a	n/a	n/a	n/a	n/a	n/a	n/a	n/a	n/a	n/a	n/a	n/a	n/a	n/a	n/a	n/a	12	1	2023-02-01_18h39.33.684	test_final	2022.2.4	60.04332728732733	n/a
NimStim_Database/Images/11F_NE_C.BMP	utils/practice/ScrambledFW_37M_NE_C.BMP	utils/practice/ScrambledBW_37M_NE_C.BMP	utils/practice/real_prac16.jpg	utils/practice/fake_prac1.jpg	n/a	n/a	n/a	n/a	n/a	0.0	7.0	7.0	14.0	0.0	0.0	0.0	0.0	n/a	n/a	n/a	n/a	n/a	n/a	n/a	n/a	n/a	n/a	n/a	n/a	n/a	n/a	n/a	n/a	n/a	n/a	n/a	n/a	n/a	n/a	n/a	n/a	n/a	n/a	n/a	n/a	n/a	n/a	n/a	n/a	n/a	n/a	n/a	n/a	n/a	n/a	n/a	n/a	n/a	412.6169290998951	414.9830602000002	2.3499999999999925	n/a	n/a	n/a	n/a	n/a	n/a	n/a	n/a	n/a	n/a	n/a	n/a	n/a	n/a	n/a	n/a	n/a	n/a	n/a	n/a	n/a	n/a	n/a	n/a	n/a	n/a	n/a	414.9830602000002	415.08107739989646	415.08107739989646	415.1173252000008	415.1173252000008	415.176158499904	415.176158499904	415.176158499904	415.176158499904	415.176158499904	415.176158499904	415.176158499904	right	n/a	n/a	n/a	n/a	0.5725553003139794	415.7801814000122	n/a	n/a	n/a	n/a	n/a	utils/practice/ScrambledFW_37M_NE_C.BMP	n/a	n/a	n/a	n/a	n/a	n/a	utils/practice/ScrambledBW_37M_NE_C.BMP	n/a	n/a	n/a	n/a	n/a	n/a	n/a	n/a	n/a	n/a	n/a	n/a	n/a	n/a	n/a	n/a	n/a	n/a	n/a	n/a	n/a	n/a	n/a	n/a	n/a	n/a	n/a	n/a	12	1	2023-02-01_18h39.33.684	test_final	2022.2.4	60.04332728732733	n/a
NimStim_Database/Images/11F_NE_C.BMP	utils/practice/ScrambledFW_37M_NE_C.BMP	utils/practice/ScrambledBW_37M_NE_C.BMP	utils/practice/real_prac16.jpg	utils/practice/fake_prac1.jpg	n/a	n/a	n/a	n/a	n/a	0.0	7.0	7.0	14.0	n/a	n/a	n/a	n/a	n/a	n/a	n/a	n/a	0.0	0.0	0.0	0.0	n/a	n/a	n/a	n/a	n/a	n/a	n/a	n/a	n/a	n/a	n/a	n/a	n/a	n/a	n/a	n/a	n/a	n/a	n/a	n/a	n/a	n/a	n/a	n/a	n/a	n/a	n/a	n/a	n/a	n/a	n/a	n/a	n/a	n/a	n/a	n/a	n/a	n/a	n/a	n/a	n/a	n/a	n/a	n/a	n/a	n/a	416.79577680001967	416.79577680001967	3.0	0.3173192001413554	417.14545680000447	417.14545680000447	417.14545680000447	417.14545680000447	417.14545680000447	417.14545680000447	4.0	0.1588499001227319	n/a	n/a	n/a	n/a	n/a	n/a	n/a	n/a	n/a	n/a	n/a	n/a	n/a	n/a	n/a	n/a	n/a	n/a	n/a	n/a	n/a	n/a	n/a	n/a	n/a	n/a	n/a	n/a	n/a	utils/practice/ScrambledFW_37M_NE_C.BMP	n/a	n/a	n/a	n/a	n/a	n/a	utils/practice/ScrambledBW_37M_NE_C.BMP	n/a	n/a	n/a	n/a	n/a	n/a	n/a	n/a	n/a	n/a	n/a	n/a	n/a	n/a	n/a	n/a	n/a	n/a	n/a	n/a	n/a	n/a	n/a	n/a	n/a	n/a	n/a	n/a	12	1	2023-02-01_18h39.33.684	test_final	2022.2.4	60.04332728732733	n/a
NimStim_Database/Images/11F_NE_C.BMP	utils/practice/ScrambledFW_37M_NE_C.BMP	utils/practice/ScrambledBW_37M_NE_C.BMP	utils/practice/real_prac16.jpg	utils/practice/fake_prac1.jpg	n/a	n/a	n/a	n/a	n/a	0.0	7.0	7.0	14.0	n/a	n/a	n/a	n/a	n/a	n/a	n/a	n/a	n/a	n/a	n/a	n/a	n/a	n/a	n/a	n/a	n/a	n/a	n/a	n/a	n/a	n/a	n/a	n/a	n/a	n/a	n/a	n/a	n/a	n/a	n/a	n/a	n/a	n/a	n/a	n/a	n/a	n/a	n/a	n/a	n/a	n/a	n/a	n/a	n/a	n/a	n/a	n/a	n/a	n/a	n/a	n/a	n/a	n/a	n/a	n/a	n/a	n/a	n/a	n/a	n/a	n/a	n/a	n/a	n/a	n/a	n/a	n/a	n/a	n/a	417.3285256999079	n/a	n/a	n/a	n/a	n/a	n/a	n/a	n/a	n/a	n/a	n/a	n/a	n/a	n/a	n/a	n/a	n/a	n/a	n/a	n/a	n/a	n/a	n/a	n/a	n/a	n/a	n/a	n/a	utils/practice/ScrambledFW_37M_NE_C.BMP	n/a	n/a	n/a	n/a	n/a	n/a	utils/practice/ScrambledBW_37M_NE_C.BMP	n/a	n/a	n/a	n/a	n/a	n/a	n/a	n/a	n/a	n/a	n/a	n/a	n/a	n/a	n/a	n/a	n/a	n/a	n/a	n/a	n/a	n/a	n/a	n/a	n/a	n/a	n/a	n/a	12	1	2023-02-01_18h39.33.684	test_final	2022.2.4	60.04332728732733	n/a
NimStim_Database/Images/23M_NE_C.BMP	utils/practice/ScrambledFW_28M_NE_C.BMP	utils/practice/ScrambledBW_28M_NE_C.BMP	utils/practice/real_prac8.jpg	utils/practice/real_prac3.jpg	n/a	n/a	n/a	n/a	n/a	0.0	8.0	8.0	11.0	0.0	0.0	0.0	0.0	n/a	n/a	n/a	n/a	n/a	n/a	n/a	n/a	n/a	n/a	n/a	n/a	n/a	n/a	n/a	n/a	n/a	n/a	n/a	n/a	n/a	n/a	n/a	n/a	n/a	n/a	n/a	n/a	n/a	n/a	n/a	n/a	n/a	n/a	n/a	n/a	n/a	n/a	n/a	n/a	n/a	419.3429101000074	421.8421041998081	2.4899999999999896	n/a	n/a	n/a	n/a	n/a	n/a	n/a	n/a	n/a	n/a	n/a	n/a	n/a	n/a	n/a	n/a	n/a	n/a	n/a	n/a	n/a	n/a	n/a	n/a	n/a	n/a	n/a	421.8421041998081	421.9593887999654	421.9593887999654	421.9910483998247	421.9910483998247	422.0513635999523	422.0513635999523	422.0513635999523	422.0513635999523	422.0513635999523	422.0513635999523	422.0513635999523	left	n/a	n/a	n/a	n/a	0.671076999977231	422.7390576999169	n/a	n/a	n/a	n/a	n/a	utils/practice/ScrambledFW_28M_NE_C.BMP	n/a	n/a	n/a	n/a	n/a	n/a	utils/practice/ScrambledBW_28M_NE_C.BMP	n/a	n/a	n/a	n/a	n/a	n/a	n/a	n/a	n/a	n/a	n/a	n/a	n/a	n/a	n/a	n/a	n/a	n/a	n/a	n/a	n/a	n/a	n/a	n/a	n/a	n/a	n/a	n/a	12	1	2023-02-01_18h39.33.684	test_final	2022.2.4	60.04332728732733	n/a
NimStim_Database/Images/23M_NE_C.BMP	utils/practice/ScrambledFW_28M_NE_C.BMP	utils/practice/ScrambledBW_28M_NE_C.BMP	utils/practice/real_prac8.jpg	utils/practice/real_prac3.jpg	n/a	n/a	n/a	n/a	n/a	0.0	8.0	8.0	11.0	n/a	n/a	n/a	n/a	n/a	n/a	n/a	n/a	0.0	0.0	0.0	0.0	n/a	n/a	n/a	n/a	n/a	n/a	n/a	n/a	n/a	n/a	n/a	n/a	n/a	n/a	n/a	n/a	n/a	n/a	n/a	n/a	n/a	n/a	n/a	n/a	n/a	n/a	n/a	n/a	n/a	n/a	n/a	n/a	n/a	n/a	n/a	n/a	n/a	n/a	n/a	n/a	n/a	n/a	n/a	n/a	n/a	n/a	423.7547561000101	423.7547561000101	2.0	0.5308531001210213	424.3041945998557	424.3041945998557	424.3041945998557	424.3041945998557	424.3041945998557	424.3041945998557	1.0	0.1469305001664906	n/a	n/a	n/a	n/a	n/a	n/a	n/a	n/a	n/a	n/a	n/a	n/a	n/a	n/a	n/a	n/a	n/a	n/a	n/a	n/a	n/a	n/a	n/a	n/a	n/a	n/a	n/a	n/a	n/a	utils/practice/ScrambledFW_28M_NE_C.BMP	n/a	n/a	n/a	n/a	n/a	n/a	utils/practice/ScrambledBW_28M_NE_C.BMP	n/a	n/a	n/a	n/a	n/a	n/a	n/a	n/a	n/a	n/a	n/a	n/a	n/a	n/a	n/a	n/a	n/a	n/a	n/a	n/a	n/a	n/a	n/a	n/a	n/a	n/a	n/a	n/a	12	1	2023-02-01_18h39.33.684	test_final	2022.2.4	60.04332728732733	n/a
NimStim_Database/Images/23M_NE_C.BMP	utils/practice/ScrambledFW_28M_NE_C.BMP	utils/practice/ScrambledBW_28M_NE_C.BMP	utils/practice/real_prac8.jpg	utils/practice/real_prac3.jpg	n/a	n/a	n/a	n/a	n/a	0.0	8.0	8.0	11.0	n/a	n/a	n/a	n/a	n/a	n/a	n/a	n/a	n/a	n/a	n/a	n/a	n/a	n/a	n/a	n/a	n/a	n/a	n/a	n/a	n/a	n/a	n/a	n/a	n/a	n/a	n/a	n/a	n/a	n/a	n/a	n/a	n/a	n/a	n/a	n/a	n/a	n/a	n/a	n/a	n/a	n/a	n/a	n/a	n/a	n/a	n/a	n/a	n/a	n/a	n/a	n/a	n/a	n/a	n/a	n/a	n/a	n/a	n/a	n/a	n/a	n/a	n/a	n/a	n/a	n/a	n/a	n/a	n/a	n/a	424.47064239997417	n/a	n/a	n/a	n/a	n/a	n/a	n/a	n/a	n/a	n/a	n/a	n/a	n/a	n/a	n/a	n/a	n/a	n/a	n/a	n/a	n/a	n/a	n/a	n/a	n/a	n/a	n/a	n/a	utils/practice/ScrambledFW_28M_NE_C.BMP	n/a	n/a	n/a	n/a	n/a	n/a	utils/practice/ScrambledBW_28M_NE_C.BMP	n/a	n/a	n/a	n/a	n/a	n/a	n/a	n/a	n/a	n/a	n/a	n/a	n/a	n/a	n/a	n/a	n/a	n/a	n/a	n/a	n/a	n/a	n/a	n/a	n/a	n/a	n/a	n/a	12	1	2023-02-01_18h39.33.684	test_final	2022.2.4	60.04332728732733	n/a
NimStim_Database/Images/16F_NE_O.BMP	utils/practice/ScrambledFW_16F_NE_O.BMP	utils/practice/ScrambledBW_16F_NE_O.BMP	utils/practice/fake_prac6.jpg	utils/practice/fake_prac15.jpg	n/a	n/a	n/a	n/a	n/a	0.0	9.0	9.0	7.0	0.0	0.0	0.0	0.0	n/a	n/a	n/a	n/a	n/a	n/a	n/a	n/a	n/a	n/a	n/a	n/a	n/a	n/a	n/a	n/a	n/a	n/a	n/a	n/a	n/a	n/a	n/a	n/a	n/a	n/a	n/a	n/a	n/a	n/a	n/a	n/a	n/a	n/a	n/a	n/a	n/a	n/a	n/a	n/a	n/a	426.4849659998436	428.71912419982255	2.2199999999999958	n/a	n/a	n/a	n/a	n/a	n/a	n/a	n/a	n/a	n/a	n/a	n/a	n/a	n/a	n/a	n/a	n/a	n/a	n/a	n/a	n/a	n/a	n/a	n/a	n/a	n/a	n/a	428.71912419982255	428.85337599995546	428.85337599995546	428.8833720998373	428.8833720998373	428.943085799925	428.943085799925	428.943085799925	428.943085799925	428.943085799925	428.943085799925	428.943085799925	left	n/a	n/a	n/a	n/a	0.4325226999353617	429.3985428998713	n/a	n/a	n/a	n/a	n/a	utils/practice/ScrambledFW_16F_NE_O.BMP	n/a	n/a	n/a	n/a	n/a	n/a	utils/practice/ScrambledBW_16F_NE_O.BMP	n/a	n/a	n/a	n/a	n/a	n/a	n/a	n/a	n/a	n/a	n/a	n/a	n/a	n/a	n/a	n/a	n/a	n/a	n/a	n/a	n/a	n/a	n/a	n/a	n/a	n/a	n/a	n/a	12	1	2023-02-01_18h39.33.684	test_final	2022.2.4	60.04332728732733	n/a
NimStim_Database/Images/16F_NE_O.BMP	utils/practice/ScrambledFW_16F_NE_O.BMP	utils/practice/ScrambledBW_16F_NE_O.BMP	utils/practice/fake_prac6.jpg	utils/practice/fake_prac15.jpg	n/a	n/a	n/a	n/a	n/a	0.0	9.0	9.0	7.0	n/a	n/a	n/a	n/a	n/a	n/a	n/a	n/a	0.0	0.0	0.0	0.0	n/a	n/a	n/a	n/a	n/a	n/a	n/a	n/a	n/a	n/a	n/a	n/a	n/a	n/a	n/a	n/a	n/a	n/a	n/a	n/a	n/a	n/a	n/a	n/a	n/a	n/a	n/a	n/a	n/a	n/a	n/a	n/a	n/a	n/a	n/a	n/a	n/a	n/a	n/a	n/a	n/a	n/a	n/a	n/a	n/a	n/a	430.4140220999252	430.4140220999252	3.0	0.730943700298667	431.163470499916	431.163470499916	431.163470499916	431.163470499916	431.163470499916	431.163470499916	4.0	0.7639715000987053	n/a	n/a	n/a	n/a	n/a	n/a	n/a	n/a	n/a	n/a	n/a	n/a	n/a	n/a	n/a	n/a	n/a	n/a	n/a	n/a	n/a	n/a	n/a	n/a	n/a	n/a	n/a	n/a	n/a	utils/practice/ScrambledFW_16F_NE_O.BMP	n/a	n/a	n/a	n/a	n/a	n/a	utils/practice/ScrambledBW_16F_NE_O.BMP	n/a	n/a	n/a	n/a	n/a	n/a	n/a	n/a	n/a	n/a	n/a	n/a	n/a	n/a	n/a	n/a	n/a	n/a	n/a	n/a	n/a	n/a	n/a	n/a	n/a	n/a	n/a	n/a	12	1	2023-02-01_18h39.33.684	test_final	2022.2.4	60.04332728732733	n/a
NimStim_Database/Images/16F_NE_O.BMP	utils/practice/ScrambledFW_16F_NE_O.BMP	utils/practice/ScrambledBW_16F_NE_O.BMP	utils/practice/fake_prac6.jpg	utils/practice/fake_prac15.jpg	n/a	n/a	n/a	n/a	n/a	0.0	9.0	9.0	7.0	n/a	n/a	n/a	n/a	n/a	n/a	n/a	n/a	n/a	n/a	n/a	n/a	n/a	n/a	n/a	n/a	n/a	n/a	n/a	n/a	n/a	n/a	n/a	n/a	n/a	n/a	n/a	n/a	n/a	n/a	n/a	n/a	n/a	n/a	n/a	n/a	n/a	n/a	n/a	n/a	n/a	n/a	n/a	n/a	n/a	n/a	n/a	n/a	n/a	n/a	n/a	n/a	n/a	n/a	n/a	n/a	n/a	n/a	n/a	n/a	n/a	n/a	n/a	n/a	n/a	n/a	n/a	n/a	n/a	n/a	431.9457488998305	n/a	n/a	n/a	n/a	n/a	n/a	n/a	n/a	n/a	n/a	n/a	n/a	n/a	n/a	n/a	n/a	n/a	n/a	n/a	n/a	n/a	n/a	n/a	n/a	n/a	n/a	n/a	n/a	utils/practice/ScrambledFW_16F_NE_O.BMP	n/a	n/a	n/a	n/a	n/a	n/a	utils/practice/ScrambledBW_16F_NE_O.BMP	n/a	n/a	n/a	n/a	n/a	n/a	n/a	n/a	n/a	n/a	n/a	n/a	n/a	n/a	n/a	n/a	n/a	n/a	n/a	n/a	n/a	n/a	n/a	n/a	n/a	n/a	n/a	n/a	12	1	2023-02-01_18h39.33.684	test_final	2022.2.4	60.04332728732733	n/a
NimStim_Database/Images/15F_NE_O.BMP	utils/practice/ScrambledFW_08F_NE_O.BMP	utils/practice/ScrambledBW_08F_NE_O.BMP	utils/practice/real_prac4.jpg	utils/practice/fake_prac12.jpg	n/a	n/a	n/a	n/a	n/a	0.0	10.0	10.0	3.0	0.0	0.0	0.0	0.0	n/a	n/a	n/a	n/a	n/a	n/a	n/a	n/a	n/a	n/a	n/a	n/a	n/a	n/a	n/a	n/a	n/a	n/a	n/a	n/a	n/a	n/a	n/a	n/a	n/a	n/a	n/a	n/a	n/a	n/a	n/a	n/a	n/a	n/a	n/a	n/a	n/a	n/a	n/a	n/a	n/a	433.9603141997941	436.0267504998483	2.0599999999999987	n/a	n/a	n/a	n/a	n/a	n/a	n/a	n/a	n/a	n/a	n/a	n/a	n/a	n/a	n/a	n/a	n/a	n/a	n/a	n/a	n/a	n/a	n/a	n/a	n/a	n/a	n/a	436.0267504998483	436.12438199995086	436.12438199995086	436.1599032999948	436.1599032999948	436.21736229979433	436.21736229979433	436.21736229979433	436.21736229979433	436.21736229979433	436.21736229979433	436.21736229979433	left	n/a	n/a	n/a	n/a	0.5470989001914859	436.79041699995287	n/a	n/a	n/a	n/a	n/a	utils/practice/ScrambledFW_08F_NE_O.BMP	n/a	n/a	n/a	n/a	n/a	n/a	utils/practice/ScrambledBW_08F_NE_O.BMP	n/a	n/a	n/a	n/a	n/a	n/a	n/a	n/a	n/a	n/a	n/a	n/a	n/a	n/a	n/a	n/a	n/a	n/a	n/a	n/a	n/a	n/a	n/a	n/a	n/a	n/a	n/a	n/a	12	1	2023-02-01_18h39.33.684	test_final	2022.2.4	60.04332728732733	n/a
NimStim_Database/Images/15F_NE_O.BMP	utils/practice/ScrambledFW_08F_NE_O.BMP	utils/practice/ScrambledBW_08F_NE_O.BMP	utils/practice/real_prac4.jpg	utils/practice/fake_prac12.jpg	n/a	n/a	n/a	n/a	n/a	0.0	10.0	10.0	3.0	n/a	n/a	n/a	n/a	n/a	n/a	n/a	n/a	0.0	0.0	0.0	0.0	n/a	n/a	n/a	n/a	n/a	n/a	n/a	n/a	n/a	n/a	n/a	n/a	n/a	n/a	n/a	n/a	n/a	n/a	n/a	n/a	n/a	n/a	n/a	n/a	n/a	n/a	n/a	n/a	n/a	n/a	n/a	n/a	n/a	n/a	n/a	n/a	n/a	n/a	n/a	n/a	n/a	n/a	n/a	n/a	n/a	n/a	437.8059644999448	437.8059644999448	1.0	0.4365372001193464	438.2720367999282	438.2720367999282	438.2720367999282	438.2720367999282	438.2720367999282	438.2720367999282	1.0	0.8770421999506652	n/a	n/a	n/a	n/a	n/a	n/a	n/a	n/a	n/a	n/a	n/a	n/a	n/a	n/a	n/a	n/a	n/a	n/a	n/a	n/a	n/a	n/a	n/a	n/a	n/a	n/a	n/a	n/a	n/a	utils/practice/ScrambledFW_08F_NE_O.BMP	n/a	n/a	n/a	n/a	n/a	n/a	utils/practice/ScrambledBW_08F_NE_O.BMP	n/a	n/a	n/a	n/a	n/a	n/a	n/a	n/a	n/a	n/a	n/a	n/a	n/a	n/a	n/a	n/a	n/a	n/a	n/a	n/a	n/a	n/a	n/a	n/a	n/a	n/a	n/a	n/a	12	1	2023-02-01_18h39.33.684	test_final	2022.2.4	60.04332728732733	n/a
NimStim_Database/Images/15F_NE_O.BMP	utils/practice/ScrambledFW_08F_NE_O.BMP	utils/practice/ScrambledBW_08F_NE_O.BMP	utils/practice/real_prac4.jpg	utils/practice/fake_prac12.jpg	n/a	n/a	n/a	n/a	n/a	0.0	10.0	10.0	3.0	n/a	n/a	n/a	n/a	n/a	n/a	n/a	n/a	n/a	n/a	n/a	n/a	n/a	n/a	n/a	n/a	n/a	n/a	n/a	n/a	n/a	n/a	n/a	n/a	n/a	n/a	n/a	n/a	n/a	n/a	n/a	n/a	n/a	n/a	n/a	n/a	n/a	n/a	n/a	n/a	n/a	n/a	n/a	n/a	n/a	n/a	n/a	n/a	n/a	n/a	n/a	n/a	n/a	n/a	n/a	n/a	n/a	n/a	n/a	n/a	n/a	n/a	n/a	n/a	n/a	n/a	n/a	n/a	n/a	n/a	439.1710570999421	n/a	n/a	n/a	n/a	n/a	n/a	n/a	n/a	n/a	n/a	n/a	n/a	n/a	n/a	n/a	n/a	n/a	n/a	n/a	n/a	n/a	n/a	n/a	n/a	n/a	n/a	n/a	n/a	utils/practice/ScrambledFW_08F_NE_O.BMP	n/a	n/a	n/a	n/a	n/a	n/a	utils/practice/ScrambledBW_08F_NE_O.BMP	n/a	n/a	n/a	n/a	n/a	n/a	n/a	n/a	n/a	n/a	n/a	n/a	n/a	n/a	n/a	n/a	n/a	n/a	n/a	n/a	n/a	n/a	n/a	n/a	n/a	n/a	n/a	n/a	12	1	2023-02-01_18h39.33.684	test_final	2022.2.4	60.04332728732733	n/a
NimStim_Database/Images/28M_NE_O.BMP	utils/practice/ScrambledFW_12F_NE_C.BMP	utils/practice/ScrambledBW_12F_NE_C.BMP	utils/practice/fake_prac3.jpg	utils/practice/fake_prac10.jpg	n/a	n/a	n/a	n/a	n/a	0.0	11.0	11.0	5.0	n/a	n/a	n/a	n/a	0.0	0.0	0.0	0.0	n/a	n/a	n/a	n/a	n/a	n/a	n/a	n/a	n/a	n/a	n/a	n/a	n/a	n/a	n/a	n/a	n/a	n/a	n/a	n/a	n/a	n/a	n/a	n/a	n/a	n/a	n/a	n/a	n/a	n/a	n/a	n/a	n/a	n/a	n/a	n/a	n/a	441.1856092999224	443.3199427998625	2.119999999999997	n/a	n/a	n/a	n/a	n/a	n/a	n/a	n/a	n/a	n/a	n/a	n/a	n/a	n/a	n/a	n/a	n/a	n/a	n/a	n/a	n/a	n/a	n/a	n/a	n/a	n/a	n/a	443.3199427998625	443.4165069998708	443.4165069998708	443.4514358998276	443.4514358998276	443.5118760999758	443.5118760999758	443.5118760999758	443.5118760999758	443.5118760999758	443.5118760999758	443.5118760999758	None	444.2487019998953	444.2487019998953	space	1.0095290001481771	n/a	n/a	n/a	n/a	n/a	n/a	n/a	utils/practice/ScrambledFW_12F_NE_C.BMP	n/a	n/a	n/a	n/a	n/a	n/a	utils/practice/ScrambledBW_12F_NE_C.BMP	n/a	n/a	n/a	n/a	n/a	n/a	n/a	n/a	n/a	n/a	n/a	n/a	n/a	n/a	n/a	n/a	n/a	n/a	n/a	n/a	n/a	n/a	n/a	n/a	n/a	n/a	n/a	n/a	12	1	2023-02-01_18h39.33.684	test_final	2022.2.4	60.04332728732733	n/a
NimStim_Database/Images/28M_NE_O.BMP	utils/practice/ScrambledFW_12F_NE_C.BMP	utils/practice/ScrambledBW_12F_NE_C.BMP	utils/practice/fake_prac3.jpg	utils/practice/fake_prac10.jpg	n/a	n/a	n/a	n/a	n/a	0.0	11.0	11.0	5.0	n/a	n/a	n/a	n/a	n/a	n/a	n/a	n/a	n/a	n/a	n/a	n/a	n/a	n/a	n/a	n/a	n/a	n/a	n/a	n/a	n/a	n/a	n/a	n/a	n/a	n/a	n/a	n/a	n/a	n/a	n/a	n/a	n/a	n/a	n/a	n/a	n/a	n/a	n/a	n/a	n/a	n/a	n/a	n/a	n/a	n/a	n/a	n/a	n/a	n/a	n/a	n/a	n/a	n/a	n/a	n/a	n/a	n/a	n/a	n/a	n/a	n/a	n/a	n/a	n/a	n/a	n/a	n/a	n/a	n/a	445.2810547999106	n/a	n/a	n/a	n/a	n/a	n/a	n/a	n/a	n/a	n/a	n/a	n/a	n/a	n/a	n/a	n/a	n/a	n/a	n/a	n/a	n/a	n/a	n/a	n/a	n/a	n/a	n/a	n/a	utils/practice/ScrambledFW_12F_NE_C.BMP	n/a	n/a	n/a	n/a	n/a	n/a	utils/practice/ScrambledBW_12F_NE_C.BMP	n/a	n/a	n/a	n/a	n/a	n/a	n/a	n/a	n/a	n/a	n/a	n/a	n/a	n/a	n/a	n/a	n/a	n/a	n/a	n/a	n/a	n/a	n/a	n/a	n/a	n/a	n/a	n/a	12	1	2023-02-01_18h39.33.684	test_final	2022.2.4	60.04332728732733	n/a
NimStim_Database/Images/03F_NE_O.BMP	utils/practice/ScrambledFW_23M_NE_C.BMP	utils/practice/ScrambledBW_23M_NE_C.BMP	utils/practice/fake_prac7.jpg	utils/practice/real_prac6.jpg	n/a	n/a	n/a	n/a	n/a	0.0	12.0	12.0	8.0	0.0	0.0	0.0	0.0	n/a	n/a	n/a	n/a	n/a	n/a	n/a	n/a	n/a	n/a	n/a	n/a	n/a	n/a	n/a	n/a	n/a	n/a	n/a	n/a	n/a	n/a	n/a	n/a	n/a	n/a	n/a	n/a	n/a	n/a	n/a	n/a	n/a	n/a	n/a	n/a	n/a	n/a	n/a	n/a	n/a	447.29574469989166	449.7619367998559	2.45999999999999	n/a	n/a	n/a	n/a	n/a	n/a	n/a	n/a	n/a	n/a	n/a	n/a	n/a	n/a	n/a	n/a	n/a	n/a	n/a	n/a	n/a	n/a	n/a	n/a	n/a	n/a	n/a	449.7619367998559	449.8593076998368	449.8593076998368	449.8943074999843	449.8943074999843	449.9531913998071	449.9531913998071	449.9531913998071	449.9531913998071	449.9531913998071	449.9531913998071	449.9531913998071	left	n/a	n/a	n/a	n/a	0.6029699000064284	450.5753300997894	n/a	n/a	n/a	n/a	n/a	utils/practice/ScrambledFW_23M_NE_C.BMP	n/a	n/a	n/a	n/a	n/a	n/a	utils/practice/ScrambledBW_23M_NE_C.BMP	n/a	n/a	n/a	n/a	n/a	n/a	n/a	n/a	n/a	n/a	n/a	n/a	n/a	n/a	n/a	n/a	n/a	n/a	n/a	n/a	n/a	n/a	n/a	n/a	n/a	n/a	n/a	n/a	12	1	2023-02-01_18h39.33.684	test_final	2022.2.4	60.04332728732733	n/a
NimStim_Database/Images/03F_NE_O.BMP	utils/practice/ScrambledFW_23M_NE_C.BMP	utils/practice/ScrambledBW_23M_NE_C.BMP	utils/practice/fake_prac7.jpg	utils/practice/real_prac6.jpg	n/a	n/a	n/a	n/a	n/a	0.0	12.0	12.0	8.0	n/a	n/a	n/a	n/a	n/a	n/a	n/a	n/a	0.0	0.0	0.0	0.0	n/a	n/a	n/a	n/a	n/a	n/a	n/a	n/a	n/a	n/a	n/a	n/a	n/a	n/a	n/a	n/a	n/a	n/a	n/a	n/a	n/a	n/a	n/a	n/a	n/a	n/a	n/a	n/a	n/a	n/a	n/a	n/a	n/a	n/a	n/a	n/a	n/a	n/a	n/a	n/a	n/a	n/a	n/a	n/a	n/a	n/a	451.5907558000181	451.5907558000181	2.0	0.4515071001369506	452.07376509998	452.07376509998	452.07376509998	452.07376509998	452.07376509998	452.07376509998	4.0	0.1686138003133237	n/a	n/a	n/a	n/a	n/a	n/a	n/a	n/a	n/a	n/a	n/a	n/a	n/a	n/a	n/a	n/a	n/a	n/a	n/a	n/a	n/a	n/a	n/a	n/a	n/a	n/a	n/a	n/a	n/a	utils/practice/ScrambledFW_23M_NE_C.BMP	n/a	n/a	n/a	n/a	n/a	n/a	utils/practice/ScrambledBW_23M_NE_C.BMP	n/a	n/a	n/a	n/a	n/a	n/a	n/a	n/a	n/a	n/a	n/a	n/a	n/a	n/a	n/a	n/a	n/a	n/a	n/a	n/a	n/a	n/a	n/a	n/a	n/a	n/a	n/a	n/a	12	1	2023-02-01_18h39.33.684	test_final	2022.2.4	60.04332728732733	n/a
NimStim_Database/Images/03F_NE_O.BMP	utils/practice/ScrambledFW_23M_NE_C.BMP	utils/practice/ScrambledBW_23M_NE_C.BMP	utils/practice/fake_prac7.jpg	utils/practice/real_prac6.jpg	n/a	n/a	n/a	n/a	n/a	0.0	12.0	12.0	8.0	n/a	n/a	n/a	n/a	n/a	n/a	n/a	n/a	n/a	n/a	n/a	n/a	n/a	n/a	n/a	n/a	n/a	n/a	n/a	n/a	n/a	n/a	n/a	n/a	n/a	n/a	n/a	n/a	n/a	n/a	n/a	n/a	n/a	n/a	n/a	n/a	n/a	n/a	n/a	n/a	n/a	n/a	n/a	n/a	n/a	n/a	n/a	n/a	n/a	n/a	n/a	n/a	n/a	n/a	n/a	n/a	n/a	n/a	n/a	n/a	n/a	n/a	n/a	n/a	n/a	n/a	n/a	n/a	n/a	n/a	452.2735443999991	n/a	n/a	n/a	n/a	n/a	n/a	n/a	n/a	n/a	n/a	n/a	n/a	n/a	n/a	n/a	n/a	n/a	n/a	n/a	n/a	n/a	n/a	n/a	n/a	n/a	n/a	n/a	n/a	utils/practice/ScrambledFW_23M_NE_C.BMP	n/a	n/a	n/a	n/a	n/a	n/a	utils/practice/ScrambledBW_23M_NE_C.BMP	n/a	n/a	n/a	n/a	n/a	n/a	n/a	n/a	n/a	n/a	n/a	n/a	n/a	n/a	n/a	n/a	n/a	n/a	n/a	n/a	n/a	n/a	n/a	n/a	n/a	n/a	n/a	n/a	12	1	2023-02-01_18h39.33.684	test_final	2022.2.4	60.04332728732733	n/a
NimStim_Database/Images/33M_NE_C.BMP	utils/practice/ScrambledFW_25M_NE_C.BMP	utils/practice/ScrambledBW_25M_NE_C.BMP	utils/practice/fake_prac4.jpg	utils/practice/fake_prac5.jpg	n/a	n/a	n/a	n/a	n/a	0.0	13.0	13.0	10.0	0.0	0.0	0.0	0.0	n/a	n/a	n/a	n/a	n/a	n/a	n/a	n/a	n/a	n/a	n/a	n/a	n/a	n/a	n/a	n/a	n/a	n/a	n/a	n/a	n/a	n/a	n/a	n/a	n/a	n/a	n/a	n/a	n/a	n/a	n/a	n/a	n/a	n/a	n/a	n/a	n/a	n/a	n/a	n/a	n/a	454.2877926998772	456.4216461000033	2.119999999999997	n/a	n/a	n/a	n/a	n/a	n/a	n/a	n/a	n/a	n/a	n/a	n/a	n/a	n/a	n/a	n/a	n/a	n/a	n/a	n/a	n/a	n/a	n/a	n/a	n/a	n/a	n/a	456.4216461000033	456.5352699998766	456.5352699998766	456.5708190998994	456.5708190998994	456.6292667000089	456.6292667000089	456.6292667000089	456.6292667000089	456.6292667000089	456.6292667000089	456.6292667000089	left	n/a	n/a	n/a	n/a	0.5406892001628876	457.201255899854	n/a	n/a	n/a	n/a	n/a	utils/practice/ScrambledFW_25M_NE_C.BMP	n/a	n/a	n/a	n/a	n/a	n/a	utils/practice/ScrambledBW_25M_NE_C.BMP	n/a	n/a	n/a	n/a	n/a	n/a	n/a	n/a	n/a	n/a	n/a	n/a	n/a	n/a	n/a	n/a	n/a	n/a	n/a	n/a	n/a	n/a	n/a	n/a	n/a	n/a	n/a	n/a	12	1	2023-02-01_18h39.33.684	test_final	2022.2.4	60.04332728732733	n/a
NimStim_Database/Images/33M_NE_C.BMP	utils/practice/ScrambledFW_25M_NE_C.BMP	utils/practice/ScrambledBW_25M_NE_C.BMP	utils/practice/fake_prac4.jpg	utils/practice/fake_prac5.jpg	n/a	n/a	n/a	n/a	n/a	0.0	13.0	13.0	10.0	n/a	n/a	n/a	n/a	n/a	n/a	n/a	n/a	0.0	0.0	0.0	0.0	n/a	n/a	n/a	n/a	n/a	n/a	n/a	n/a	n/a	n/a	n/a	n/a	n/a	n/a	n/a	n/a	n/a	n/a	n/a	n/a	n/a	n/a	n/a	n/a	n/a	n/a	n/a	n/a	n/a	n/a	n/a	n/a	n/a	n/a	n/a	n/a	n/a	n/a	n/a	n/a	n/a	n/a	n/a	n/a	n/a	n/a	458.2168276999146	458.2168276999146	2.0	0.416328800143674	458.6498173999135	458.6498173999135	458.6498173999135	458.6498173999135	458.6498173999135	458.6498173999135	1.0	0.1791395000182092	n/a	n/a	n/a	n/a	n/a	n/a	n/a	n/a	n/a	n/a	n/a	n/a	n/a	n/a	n/a	n/a	n/a	n/a	n/a	n/a	n/a	n/a	n/a	n/a	n/a	n/a	n/a	n/a	n/a	utils/practice/ScrambledFW_25M_NE_C.BMP	n/a	n/a	n/a	n/a	n/a	n/a	utils/practice/ScrambledBW_25M_NE_C.BMP	n/a	n/a	n/a	n/a	n/a	n/a	n/a	n/a	n/a	n/a	n/a	n/a	n/a	n/a	n/a	n/a	n/a	n/a	n/a	n/a	n/a	n/a	n/a	n/a	n/a	n/a	n/a	n/a	12	1	2023-02-01_18h39.33.684	test_final	2022.2.4	60.04332728732733	n/a
NimStim_Database/Images/33M_NE_C.BMP	utils/practice/ScrambledFW_25M_NE_C.BMP	utils/practice/ScrambledBW_25M_NE_C.BMP	utils/practice/fake_prac4.jpg	utils/practice/fake_prac5.jpg	n/a	n/a	n/a	n/a	n/a	0.0	13.0	13.0	10.0	n/a	n/a	n/a	n/a	n/a	n/a	n/a	n/a	n/a	n/a	n/a	n/a	n/a	n/a	n/a	n/a	n/a	n/a	n/a	n/a	n/a	n/a	n/a	n/a	n/a	n/a	n/a	n/a	n/a	n/a	n/a	n/a	n/a	n/a	n/a	n/a	n/a	n/a	n/a	n/a	n/a	n/a	n/a	n/a	n/a	n/a	n/a	n/a	n/a	n/a	n/a	n/a	n/a	n/a	n/a	n/a	n/a	n/a	n/a	n/a	n/a	n/a	n/a	n/a	n/a	n/a	n/a	n/a	n/a	n/a	458.8495559999719	n/a	n/a	n/a	n/a	n/a	n/a	n/a	n/a	n/a	n/a	n/a	n/a	n/a	n/a	n/a	n/a	n/a	n/a	n/a	n/a	n/a	n/a	n/a	n/a	n/a	n/a	n/a	n/a	utils/practice/ScrambledFW_25M_NE_C.BMP	n/a	n/a	n/a	n/a	n/a	n/a	utils/practice/ScrambledBW_25M_NE_C.BMP	n/a	n/a	n/a	n/a	n/a	n/a	n/a	n/a	n/a	n/a	n/a	n/a	n/a	n/a	n/a	n/a	n/a	n/a	n/a	n/a	n/a	n/a	n/a	n/a	n/a	n/a	n/a	n/a	12	1	2023-02-01_18h39.33.684	test_final	2022.2.4	60.04332728732733	n/a
NimStim_Database/Images/01F_NE_O.BMP	utils/practice/ScrambledFW_28M_NE_O.BMP	utils/practice/ScrambledBW_28M_NE_O.BMP	utils/practice/fake_prac14.jpg	utils/practice/fake_prac8.jpg	n/a	n/a	n/a	n/a	n/a	0.0	14.0	14.0	12.0	0.0	0.0	0.0	0.0	n/a	n/a	n/a	n/a	n/a	n/a	n/a	n/a	n/a	n/a	n/a	n/a	n/a	n/a	n/a	n/a	n/a	n/a	n/a	n/a	n/a	n/a	n/a	n/a	n/a	n/a	n/a	n/a	n/a	n/a	n/a	n/a	n/a	n/a	n/a	n/a	n/a	n/a	n/a	n/a	n/a	460.8639124999754	463.1804165998474	2.2999999999999936	n/a	n/a	n/a	n/a	n/a	n/a	n/a	n/a	n/a	n/a	n/a	n/a	n/a	n/a	n/a	n/a	n/a	n/a	n/a	n/a	n/a	n/a	n/a	n/a	n/a	n/a	n/a	463.1804165998474	463.2945088997949	463.2945088997949	463.3283702000044	463.3283702000044	463.395245899912	463.395245899912	463.395245899912	463.395245899912	463.395245899912	463.395245899912	463.395245899912	left	n/a	n/a	n/a	n/a	0.6197879000101238	464.0436754999682	465.042646399932	n/a	n/a	n/a	n/a	utils/practice/ScrambledFW_28M_NE_O.BMP	n/a	n/a	n/a	n/a	n/a	n/a	utils/practice/ScrambledBW_28M_NE_O.BMP	n/a	n/a	n/a	n/a	n/a	n/a	n/a	n/a	n/a	n/a	n/a	n/a	n/a	n/a	n/a	n/a	n/a	n/a	n/a	n/a	n/a	n/a	n/a	n/a	n/a	n/a	n/a	n/a	12	1	2023-02-01_18h39.33.684	test_final	2022.2.4	60.04332728732733	n/a
NimStim_Database/Images/01F_NE_O.BMP	utils/practice/ScrambledFW_28M_NE_O.BMP	utils/practice/ScrambledBW_28M_NE_O.BMP	utils/practice/fake_prac14.jpg	utils/practice/fake_prac8.jpg	n/a	n/a	n/a	n/a	n/a	0.0	14.0	14.0	12.0	n/a	n/a	n/a	n/a	n/a	n/a	n/a	n/a	0.0	0.0	0.0	0.0	n/a	n/a	n/a	n/a	n/a	n/a	n/a	n/a	n/a	n/a	n/a	n/a	n/a	n/a	n/a	n/a	n/a	n/a	n/a	n/a	n/a	n/a	n/a	n/a	n/a	n/a	n/a	n/a	n/a	n/a	n/a	n/a	n/a	n/a	n/a	n/a	n/a	n/a	n/a	n/a	n/a	n/a	n/a	n/a	n/a	n/a	465.042646399932	465.042646399932	2.0	0.4069994001183659	465.4755926998332	465.4755926998332	465.4755926998332	465.4755926998332	465.4755926998332	465.4755926998332	4.0	0.184416200267151	n/a	n/a	n/a	n/a	n/a	n/a	n/a	n/a	n/a	n/a	n/a	n/a	n/a	n/a	n/a	n/a	n/a	n/a	n/a	n/a	n/a	n/a	n/a	n/a	n/a	n/a	n/a	n/a	n/a	utils/practice/ScrambledFW_28M_NE_O.BMP	n/a	n/a	n/a	n/a	n/a	n/a	utils/practice/ScrambledBW_28M_NE_O.BMP	n/a	n/a	n/a	n/a	n/a	n/a	n/a	n/a	n/a	n/a	n/a	n/a	n/a	n/a	n/a	n/a	n/a	n/a	n/a	n/a	n/a	n/a	n/a	n/a	n/a	n/a	n/a	n/a	12	1	2023-02-01_18h39.33.684	test_final	2022.2.4	60.04332728732733	n/a
NimStim_Database/Images/01F_NE_O.BMP	utils/practice/ScrambledFW_28M_NE_O.BMP	utils/practice/ScrambledBW_28M_NE_O.BMP	utils/practice/fake_prac14.jpg	utils/practice/fake_prac8.jpg	n/a	n/a	n/a	n/a	n/a	0.0	14.0	14.0	12.0	n/a	n/a	n/a	n/a	n/a	n/a	n/a	n/a	n/a	n/a	n/a	n/a	n/a	n/a	n/a	n/a	n/a	n/a	n/a	n/a	n/a	n/a	n/a	n/a	n/a	n/a	n/a	n/a	n/a	n/a	n/a	n/a	n/a	n/a	n/a	n/a	n/a	n/a	n/a	n/a	n/a	n/a	n/a	n/a	n/a	n/a	n/a	n/a	n/a	n/a	n/a	n/a	n/a	n/a	n/a	n/a	n/a	n/a	n/a	n/a	n/a	n/a	n/a	n/a	n/a	n/a	n/a	n/a	n/a	n/a	465.6918757997919	n/a	n/a	n/a	n/a	n/a	n/a	n/a	n/a	n/a	n/a	n/a	n/a	n/a	n/a	n/a	n/a	n/a	n/a	n/a	n/a	n/a	n/a	n/a	n/a	n/a	n/a	n/a	n/a	utils/practice/ScrambledFW_28M_NE_O.BMP	n/a	n/a	n/a	n/a	n/a	n/a	utils/practice/ScrambledBW_28M_NE_O.BMP	n/a	n/a	n/a	n/a	n/a	n/a	n/a	n/a	n/a	n/a	n/a	n/a	n/a	n/a	n/a	n/a	n/a	n/a	n/a	n/a	n/a	n/a	n/a	n/a	n/a	n/a	n/a	n/a	12	1	2023-02-01_18h39.33.684	test_final	2022.2.4	60.04332728732733	n/a
NimStim_Database/Images/28M_NE_C.BMP	utils/practice/ScrambledFW_33M_NE_C.BMP	utils/practice/ScrambledBW_33M_NE_C.BMP	utils/practice/real_prac2.jpg	utils/practice/fake_prac16.jpg	n/a	n/a	n/a	n/a	n/a	0.0	15.0	15.0	13.0	n/a	n/a	n/a	n/a	0.0	0.0	0.0	0.0	n/a	n/a	n/a	n/a	n/a	n/a	n/a	n/a	n/a	n/a	n/a	n/a	n/a	n/a	n/a	n/a	n/a	n/a	n/a	n/a	n/a	n/a	n/a	n/a	n/a	n/a	n/a	n/a	n/a	n/a	n/a	n/a	n/a	n/a	n/a	n/a	n/a	467.70639629988	470.1401086999104	2.419999999999991	n/a	n/a	n/a	n/a	n/a	n/a	n/a	n/a	n/a	n/a	n/a	n/a	n/a	n/a	n/a	n/a	n/a	n/a	n/a	n/a	n/a	n/a	n/a	n/a	n/a	n/a	n/a	470.1401086999104	470.2726834998466	470.2726834998466	470.3043102999218	470.3043102999218	470.3728302998934	470.3728302998934	470.3728302998934	470.3728302998934	470.3728302998934	470.3728302998934	470.3728302998934	None	471.10262489994057	471.10262489994057	space	1.1350040000397712	n/a	n/a	n/a	n/a	n/a	n/a	n/a	utils/practice/ScrambledFW_33M_NE_C.BMP	n/a	n/a	n/a	n/a	n/a	n/a	utils/practice/ScrambledBW_33M_NE_C.BMP	n/a	n/a	n/a	n/a	n/a	n/a	n/a	n/a	n/a	n/a	n/a	n/a	n/a	n/a	n/a	n/a	n/a	n/a	n/a	n/a	n/a	n/a	n/a	n/a	n/a	n/a	n/a	n/a	12	1	2023-02-01_18h39.33.684	test_final	2022.2.4	60.04332728732733	n/a
NimStim_Database/Images/28M_NE_C.BMP	utils/practice/ScrambledFW_33M_NE_C.BMP	utils/practice/ScrambledBW_33M_NE_C.BMP	utils/practice/real_prac2.jpg	utils/practice/fake_prac16.jpg	n/a	n/a	n/a	n/a	n/a	0.0	15.0	15.0	13.0	n/a	n/a	n/a	n/a	n/a	n/a	n/a	n/a	n/a	n/a	n/a	n/a	n/a	n/a	n/a	n/a	n/a	n/a	n/a	n/a	n/a	n/a	n/a	n/a	n/a	n/a	n/a	n/a	n/a	n/a	n/a	n/a	n/a	n/a	n/a	n/a	n/a	n/a	n/a	n/a	n/a	n/a	n/a	n/a	n/a	n/a	n/a	n/a	n/a	n/a	n/a	n/a	n/a	n/a	n/a	n/a	n/a	n/a	n/a	n/a	n/a	n/a	n/a	n/a	n/a	n/a	n/a	n/a	n/a	n/a	472.26805819990113	n/a	n/a	n/a	n/a	n/a	n/a	n/a	n/a	n/a	n/a	n/a	n/a	n/a	n/a	n/a	n/a	n/a	n/a	n/a	n/a	n/a	n/a	n/a	n/a	n/a	n/a	n/a	n/a	utils/practice/ScrambledFW_33M_NE_C.BMP	n/a	n/a	n/a	n/a	n/a	n/a	utils/practice/ScrambledBW_33M_NE_C.BMP	n/a	n/a	n/a	n/a	n/a	n/a	n/a	n/a	n/a	n/a	n/a	n/a	n/a	n/a	n/a	n/a	n/a	n/a	n/a	n/a	n/a	n/a	n/a	n/a	n/a	n/a	n/a	n/a	12	1	2023-02-01_18h39.33.684	test_final	2022.2.4	60.04332728732733	n/a
n/a	n/a	n/a	n/a	n/a	n/a	n/a	n/a	n/a	n/a	n/a	n/a	n/a	n/a	n/a	n/a	n/a	n/a	n/a	n/a	n/a	n/a	n/a	n/a	n/a	n/a	n/a	n/a	n/a	n/a	n/a	n/a	n/a	n/a	n/a	n/a	n/a	n/a	n/a	n/a	n/a	n/a	n/a	n/a	n/a	n/a	n/a	n/a	n/a	n/a	n/a	n/a	n/a	n/a	n/a	n/a	n/a	n/a	n/a	n/a	n/a	n/a	n/a	n/a	n/a	n/a	n/a	n/a	n/a	n/a	n/a	n/a	n/a	n/a	n/a	n/a	n/a	n/a	n/a	n/a	n/a	n/a	n/a	n/a	n/a	n/a	n/a	n/a	n/a	n/a	n/a	n/a	n/a	n/a	n/a	n/a	n/a	n/a	n/a	n/a	n/a	n/a	n/a	n/a	n/a	n/a	n/a	n/a	n/a	474.2824430000037	space	77.14548740023747	n/a	n/a	n/a	n/a	n/a	n/a	n/a	n/a	n/a	n/a	n/a	n/a	n/a	n/a	n/a	n/a	n/a	n/a	n/a	n/a	n/a	n/a	n/a	n/a	n/a	n/a	n/a	n/a	n/a	n/a	n/a	n/a	n/a	n/a	n/a	n/a	n/a	12	1	2023-02-01_18h39.33.684	test_final	2022.2.4	60.04332728732733	n/a
n/a	utils/nb_masks/NeuScrambledFW_35M_NE_C.BMP	utils/nb_masks/NeuScrambledBW_35M_NE_C.BMP	n/a	n/a	3.0	n/a	n/a	n/a	n/a	n/a	n/a	n/a	n/a	n/a	n/a	n/a	n/a	n/a	n/a	n/a	n/a	n/a	n/a	n/a	n/a	0.0	0.0	0.0	2.0	0.0	0.0	0.0	0.0	0.0	0.0	0.0	0.0	n/a	n/a	n/a	n/a	n/a	n/a	n/a	n/a	n/a	n/a	n/a	n/a	n/a	n/a	n/a	n/a	n/a	n/a	n/a	n/a	n/a	551.4488282999955	553.6786146999802	2.229999999999995	n/a	n/a	n/a	n/a	n/a	n/a	n/a	n/a	n/a	n/a	n/a	n/a	n/a	n/a	n/a	n/a	n/a	n/a	n/a	n/a	n/a	n/a	n/a	n/a	n/a	n/a	n/a	n/a	n/a	n/a	n/a	n/a	n/a	n/a	n/a	n/a	n/a	n/a	n/a	n/a	n/a	n/a	n/a	n/a	n/a	n/a	n/a	n/a	n/a	n/a	5.19980676472187e-06	utils/nb_masks/NeuScrambledFW_35M_NE_C.BMP	0.132778099970892	8.0	4.200031980872154e-06	0.0243289000354707	NimStim_Database/Images/35M_NE_C.BMP	3.600027412176132e-06	utils/nb_masks/NeuScrambledBW_35M_NE_C.BMP	0.0331519001629203	5.100155249238014e-06	MR2_database/bf02.tif	0.0004800001624971	left	0.6202909001149237	554.5629234998487	n/a	n/a	n/a	n/a	n/a	n/a	n/a	n/a	n/a	n/a	n/a	n/a	n/a	n/a	n/a	n/a	n/a	n/a	n/a	n/a	n/a	12	1	2023-02-01_18h39.33.684	test_final	2022.2.4	60.04332728732733	n/a
n/a	n/a	n/a	n/a	n/a	3.0	n/a	n/a	n/a	n/a	n/a	n/a	n/a	n/a	n/a	n/a	n/a	n/a	n/a	n/a	n/a	n/a	n/a	n/a	n/a	n/a	0.0	0.0	0.0	2.0	0.0	0.0	0.0	0.0	n/a	n/a	n/a	n/a	n/a	n/a	n/a	n/a	0.0	0.0	0.0	0.0	n/a	n/a	n/a	n/a	n/a	n/a	n/a	n/a	n/a	n/a	n/a	n/a	n/a	n/a	n/a	n/a	n/a	n/a	n/a	n/a	n/a	n/a	n/a	n/a	n/a	n/a	555.5763896999415	555.5763896999415	3.0	0.8007839000783861	556.4091176998336	556.4091176998336	556.4091176998336	556.4091176998336	556.4091176998336	556.4091176998336	4.0	0.3486738000065088	n/a	n/a	n/a	n/a	n/a	n/a	n/a	n/a	n/a	n/a	n/a	n/a	n/a	n/a	n/a	n/a	n/a	n/a	n/a	n/a	n/a	n/a	n/a	n/a	n/a	n/a	n/a	n/a	n/a	n/a	n/a	n/a	n/a	n/a	n/a	n/a	n/a	n/a	n/a	n/a	n/a	n/a	n/a	n/a	n/a	n/a	n/a	n/a	n/a	n/a	n/a	n/a	n/a	n/a	n/a	n/a	n/a	n/a	n/a	n/a	n/a	n/a	n/a	n/a	n/a	12	1	2023-02-01_18h39.33.684	test_final	2022.2.4	60.04332728732733	n/a
n/a	n/a	n/a	n/a	n/a	3.0	n/a	n/a	n/a	n/a	n/a	n/a	n/a	n/a	n/a	n/a	n/a	n/a	n/a	n/a	n/a	n/a	n/a	n/a	n/a	n/a	0.0	0.0	0.0	2.0	0.0	0.0	0.0	0.0	n/a	n/a	n/a	n/a	n/a	n/a	n/a	n/a	n/a	n/a	n/a	n/a	n/a	n/a	n/a	n/a	n/a	n/a	n/a	n/a	n/a	n/a	n/a	n/a	n/a	n/a	n/a	n/a	n/a	n/a	n/a	n/a	n/a	n/a	n/a	n/a	n/a	n/a	n/a	n/a	n/a	n/a	n/a	n/a	n/a	n/a	n/a	n/a	n/a	n/a	556.7753399999347	n/a	n/a	n/a	n/a	n/a	n/a	n/a	n/a	n/a	n/a	n/a	n/a	n/a	n/a	n/a	n/a	n/a	n/a	n/a	n/a	n/a	n/a	n/a	n/a	n/a	n/a	n/a	n/a	n/a	n/a	n/a	n/a	n/a	n/a	n/a	n/a	n/a	n/a	n/a	n/a	n/a	n/a	n/a	n/a	n/a	n/a	n/a	n/a	n/a	n/a	n/a	n/a	n/a	n/a	n/a	n/a	n/a	n/a	n/a	n/a	n/a	n/a	n/a	n/a	12	1	2023-02-01_18h39.33.684	test_final	2022.2.4	60.04332728732733	n/a
n/a	utils/nb_masks/NeuScrambledFW_17F_NE_O.BMP	utils/nb_masks/NeuScrambledBW_17F_NE_O.BMP	n/a	n/a	3.0	n/a	n/a	n/a	n/a	n/a	n/a	n/a	n/a	n/a	n/a	n/a	n/a	n/a	n/a	n/a	n/a	n/a	n/a	n/a	n/a	0.0	0.0	0.0	2.0	1.0	0.0	1.0	0.0	0.0	0.0	0.0	0.0	n/a	n/a	n/a	n/a	n/a	n/a	n/a	n/a	n/a	n/a	n/a	n/a	n/a	n/a	n/a	n/a	n/a	n/a	n/a	n/a	n/a	558.7897594999522	560.9041962998454	2.1099999999999977	n/a	n/a	n/a	n/a	n/a	n/a	n/a	n/a	n/a	n/a	n/a	n/a	n/a	n/a	n/a	n/a	n/a	n/a	n/a	n/a	n/a	n/a	n/a	n/a	n/a	n/a	n/a	n/a	n/a	n/a	n/a	n/a	n/a	n/a	n/a	n/a	n/a	n/a	n/a	n/a	n/a	n/a	n/a	n/a	n/a	n/a	n/a	n/a	n/a	n/a	6.200047209858894e-06	utils/nb_masks/NeuScrambledFW_17F_NE_O.BMP	0.1496141999959945	9.0	5.599809810519218e-06	0.0313712998759001	NimStim_Database/Images/17F_NE_O.BMP	5.499925464391708e-06	utils/nb_masks/NeuScrambledBW_17F_NE_O.BMP	0.0330457999370992	5.09992241859436e-06	MR2_database/wf02.tif	0.0005141999572515	left	0.5489020000677556	561.7193910998758	562.7189268998336	n/a	n/a	n/a	n/a	n/a	n/a	n/a	n/a	n/a	n/a	n/a	n/a	n/a	n/a	n/a	n/a	n/a	n/a	n/a	n/a	12	1	2023-02-01_18h39.33.684	test_final	2022.2.4	60.04332728732733	n/a
n/a	n/a	n/a	n/a	n/a	3.0	n/a	n/a	n/a	n/a	n/a	n/a	n/a	n/a	n/a	n/a	n/a	n/a	n/a	n/a	n/a	n/a	n/a	n/a	n/a	n/a	0.0	0.0	0.0	2.0	1.0	0.0	1.0	0.0	n/a	n/a	n/a	n/a	n/a	n/a	n/a	n/a	0.0	0.0	0.0	0.0	n/a	n/a	n/a	n/a	n/a	n/a	n/a	n/a	n/a	n/a	n/a	n/a	n/a	n/a	n/a	n/a	n/a	n/a	n/a	n/a	n/a	n/a	n/a	n/a	n/a	n/a	562.7189268998336	562.7189268998336	2.0	0.5093807999510318	563.2516699999105	563.2516699999105	563.2516699999105	563.2516699999105	563.2516699999105	563.2516699999105	4.0	0.1435670000500977	n/a	n/a	n/a	n/a	n/a	n/a	n/a	n/a	n/a	n/a	n/a	n/a	n/a	n/a	n/a	n/a	n/a	n/a	n/a	n/a	n/a	n/a	n/a	n/a	n/a	n/a	n/a	n/a	n/a	n/a	n/a	n/a	n/a	n/a	n/a	n/a	n/a	n/a	n/a	n/a	n/a	n/a	n/a	n/a	n/a	n/a	n/a	n/a	n/a	n/a	n/a	n/a	n/a	n/a	n/a	n/a	n/a	n/a	n/a	n/a	n/a	n/a	n/a	n/a	n/a	12	1	2023-02-01_18h39.33.684	test_final	2022.2.4	60.04332728732733	n/a
n/a	n/a	n/a	n/a	n/a	3.0	n/a	n/a	n/a	n/a	n/a	n/a	n/a	n/a	n/a	n/a	n/a	n/a	n/a	n/a	n/a	n/a	n/a	n/a	n/a	n/a	0.0	0.0	0.0	2.0	1.0	0.0	1.0	0.0	n/a	n/a	n/a	n/a	n/a	n/a	n/a	n/a	n/a	n/a	n/a	n/a	n/a	n/a	n/a	n/a	n/a	n/a	n/a	n/a	n/a	n/a	n/a	n/a	n/a	n/a	n/a	n/a	n/a	n/a	n/a	n/a	n/a	n/a	n/a	n/a	n/a	n/a	n/a	n/a	n/a	n/a	n/a	n/a	n/a	n/a	n/a	n/a	n/a	n/a	563.4179946999066	n/a	n/a	n/a	n/a	n/a	n/a	n/a	n/a	n/a	n/a	n/a	n/a	n/a	n/a	n/a	n/a	n/a	n/a	n/a	n/a	n/a	n/a	n/a	n/a	n/a	n/a	n/a	n/a	n/a	n/a	n/a	n/a	n/a	n/a	n/a	n/a	n/a	n/a	n/a	n/a	n/a	n/a	n/a	n/a	n/a	n/a	n/a	n/a	n/a	n/a	n/a	n/a	n/a	n/a	n/a	n/a	n/a	n/a	n/a	n/a	n/a	n/a	n/a	n/a	12	1	2023-02-01_18h39.33.684	test_final	2022.2.4	60.04332728732733	n/a
n/a	utils/nb_masks/EmoScrambledFW_10F_AN_C.BMP	utils/nb_masks/EmoScrambledBW_10F_AN_C.BMP	n/a	n/a	3.0	n/a	n/a	n/a	n/a	n/a	n/a	n/a	n/a	n/a	n/a	n/a	n/a	n/a	n/a	n/a	n/a	n/a	n/a	n/a	n/a	0.0	0.0	0.0	2.0	2.0	0.0	2.0	0.0	0.0	0.0	0.0	0.0	n/a	n/a	n/a	n/a	n/a	n/a	n/a	n/a	n/a	n/a	n/a	n/a	n/a	n/a	n/a	n/a	n/a	n/a	n/a	n/a	n/a	565.4324126997963	567.6467028998304	2.199999999999996	n/a	n/a	n/a	n/a	n/a	n/a	n/a	n/a	n/a	n/a	n/a	n/a	n/a	n/a	n/a	n/a	n/a	n/a	n/a	n/a	n/a	n/a	n/a	n/a	n/a	n/a	n/a	n/a	n/a	n/a	n/a	n/a	n/a	n/a	n/a	n/a	n/a	n/a	n/a	n/a	n/a	n/a	n/a	n/a	n/a	n/a	n/a	n/a	n/a	n/a	5.09992241859436e-06	utils/nb_masks/EmoScrambledFW_10F_AN_C.BMP	0.1495574000291526	9.0	3.999797627329826e-06	0.0322042999323457	utils/no_prime.png	3.8000289350748062e-06	utils/nb_masks/EmoScrambledBW_10F_AN_C.BMP	0.0329269999638199	4.600035026669502e-06	MR2_database/bf16.tif	0.0004974000621587	right	0.492247800109908	568.4047205999959	569.4114865998272	n/a	n/a	n/a	n/a	n/a	n/a	n/a	n/a	n/a	n/a	n/a	n/a	n/a	n/a	n/a	n/a	n/a	n/a	n/a	n/a	12	1	2023-02-01_18h39.33.684	test_final	2022.2.4	60.04332728732733	n/a
n/a	n/a	n/a	n/a	n/a	3.0	n/a	n/a	n/a	n/a	n/a	n/a	n/a	n/a	n/a	n/a	n/a	n/a	n/a	n/a	n/a	n/a	n/a	n/a	n/a	n/a	0.0	0.0	0.0	2.0	2.0	0.0	2.0	0.0	n/a	n/a	n/a	n/a	n/a	n/a	n/a	n/a	0.0	0.0	0.0	0.0	n/a	n/a	n/a	n/a	n/a	n/a	n/a	n/a	n/a	n/a	n/a	n/a	n/a	n/a	n/a	n/a	n/a	n/a	n/a	n/a	n/a	n/a	n/a	n/a	n/a	n/a	569.4114865998272	569.4114865998272	1.0	0.4998969002626836	569.9441497998778	569.9441497998778	569.9441497998778	569.9441497998778	569.9441497998778	569.9441497998778	4.0	0.4001133001875132	n/a	n/a	n/a	n/a	n/a	n/a	n/a	n/a	n/a	n/a	n/a	n/a	n/a	n/a	n/a	n/a	n/a	n/a	n/a	n/a	n/a	n/a	n/a	n/a	n/a	n/a	n/a	n/a	n/a	n/a	n/a	n/a	n/a	n/a	n/a	n/a	n/a	n/a	n/a	n/a	n/a	n/a	n/a	n/a	n/a	n/a	n/a	n/a	n/a	n/a	n/a	n/a	n/a	n/a	n/a	n/a	n/a	n/a	n/a	n/a	n/a	n/a	n/a	n/a	n/a	12	1	2023-02-01_18h39.33.684	test_final	2022.2.4	60.04332728732733	n/a
n/a	n/a	n/a	n/a	n/a	3.0	n/a	n/a	n/a	n/a	n/a	n/a	n/a	n/a	n/a	n/a	n/a	n/a	n/a	n/a	n/a	n/a	n/a	n/a	n/a	n/a	0.0	0.0	0.0	2.0	2.0	0.0	2.0	0.0	n/a	n/a	n/a	n/a	n/a	n/a	n/a	n/a	n/a	n/a	n/a	n/a	n/a	n/a	n/a	n/a	n/a	n/a	n/a	n/a	n/a	n/a	n/a	n/a	n/a	n/a	n/a	n/a	n/a	n/a	n/a	n/a	n/a	n/a	n/a	n/a	n/a	n/a	n/a	n/a	n/a	n/a	n/a	n/a	n/a	n/a	n/a	n/a	n/a	n/a	570.3771217998583	n/a	n/a	n/a	n/a	n/a	n/a	n/a	n/a	n/a	n/a	n/a	n/a	n/a	n/a	n/a	n/a	n/a	n/a	n/a	n/a	n/a	n/a	n/a	n/a	n/a	n/a	n/a	n/a	n/a	n/a	n/a	n/a	n/a	n/a	n/a	n/a	n/a	n/a	n/a	n/a	n/a	n/a	n/a	n/a	n/a	n/a	n/a	n/a	n/a	n/a	n/a	n/a	n/a	n/a	n/a	n/a	n/a	n/a	n/a	n/a	n/a	n/a	n/a	n/a	12	1	2023-02-01_18h39.33.684	test_final	2022.2.4	60.04332728732733	n/a
n/a	utils/nb_masks/EmoScrambledFW_06F_AN_C.BMP	utils/nb_masks/EmoScrambledBW_06F_AN_C.BMP	n/a	n/a	3.0	n/a	n/a	n/a	n/a	n/a	n/a	n/a	n/a	n/a	n/a	n/a	n/a	n/a	n/a	n/a	n/a	n/a	n/a	n/a	n/a	0.0	0.0	0.0	2.0	3.0	0.0	3.0	0.0	0.0	0.0	0.0	0.0	n/a	n/a	n/a	n/a	n/a	n/a	n/a	n/a	n/a	n/a	n/a	n/a	n/a	n/a	n/a	n/a	n/a	n/a	n/a	n/a	n/a	572.3913880998734	574.8053882999811	2.4099999999999917	n/a	n/a	n/a	n/a	n/a	n/a	n/a	n/a	n/a	n/a	n/a	n/a	n/a	n/a	n/a	n/a	n/a	n/a	n/a	n/a	n/a	n/a	n/a	n/a	n/a	n/a	n/a	n/a	n/a	n/a	n/a	n/a	n/a	n/a	n/a	n/a	n/a	n/a	n/a	n/a	n/a	n/a	n/a	n/a	n/a	n/a	n/a	n/a	n/a	n/a	5.600042641162872e-06	utils/nb_masks/EmoScrambledFW_06F_AN_C.BMP	0.116021699970588	7.0	3.899913281202316e-06	0.030845999950543	NimStim_Database/Images/06F_AN_C.BMP	3.6999117583036414e-06	utils/nb_masks/EmoScrambledBW_06F_AN_C.BMP	0.0329061998054385	4.800036549568176e-06	MR2_database/am02.tif	0.0004812001716345	left	0.4351021000184119	575.4656539999414	576.4701481999364	n/a	n/a	n/a	n/a	n/a	n/a	n/a	n/a	n/a	n/a	n/a	n/a	n/a	n/a	n/a	n/a	n/a	n/a	n/a	n/a	12	1	2023-02-01_18h39.33.684	test_final	2022.2.4	60.04332728732733	n/a
n/a	n/a	n/a	n/a	n/a	3.0	n/a	n/a	n/a	n/a	n/a	n/a	n/a	n/a	n/a	n/a	n/a	n/a	n/a	n/a	n/a	n/a	n/a	n/a	n/a	n/a	0.0	0.0	0.0	2.0	3.0	0.0	3.0	0.0	n/a	n/a	n/a	n/a	n/a	n/a	n/a	n/a	0.0	0.0	0.0	0.0	n/a	n/a	n/a	n/a	n/a	n/a	n/a	n/a	n/a	n/a	n/a	n/a	n/a	n/a	n/a	n/a	n/a	n/a	n/a	n/a	n/a	n/a	n/a	n/a	n/a	n/a	576.4701481999364	576.4701481999364	2.0	0.750318500213325	577.2528843998443	577.2528843998443	577.2528843998443	577.2528843998443	577.2528843998443	577.2528843998443	1.0	0.2952316000591963	n/a	n/a	n/a	n/a	n/a	n/a	n/a	n/a	n/a	n/a	n/a	n/a	n/a	n/a	n/a	n/a	n/a	n/a	n/a	n/a	n/a	n/a	n/a	n/a	n/a	n/a	n/a	n/a	n/a	n/a	n/a	n/a	n/a	n/a	n/a	n/a	n/a	n/a	n/a	n/a	n/a	n/a	n/a	n/a	n/a	n/a	n/a	n/a	n/a	n/a	n/a	n/a	n/a	n/a	n/a	n/a	n/a	n/a	n/a	n/a	n/a	n/a	n/a	n/a	n/a	12	1	2023-02-01_18h39.33.684	test_final	2022.2.4	60.04332728732733	n/a
n/a	n/a	n/a	n/a	n/a	3.0	n/a	n/a	n/a	n/a	n/a	n/a	n/a	n/a	n/a	n/a	n/a	n/a	n/a	n/a	n/a	n/a	n/a	n/a	n/a	n/a	0.0	0.0	0.0	2.0	3.0	0.0	3.0	0.0	n/a	n/a	n/a	n/a	n/a	n/a	n/a	n/a	n/a	n/a	n/a	n/a	n/a	n/a	n/a	n/a	n/a	n/a	n/a	n/a	n/a	n/a	n/a	n/a	n/a	n/a	n/a	n/a	n/a	n/a	n/a	n/a	n/a	n/a	n/a	n/a	n/a	n/a	n/a	n/a	n/a	n/a	n/a	n/a	n/a	n/a	n/a	n/a	n/a	n/a	577.5690768000204	n/a	n/a	n/a	n/a	n/a	n/a	n/a	n/a	n/a	n/a	n/a	n/a	n/a	n/a	n/a	n/a	n/a	n/a	n/a	n/a	n/a	n/a	n/a	n/a	n/a	n/a	n/a	n/a	n/a	n/a	n/a	n/a	n/a	n/a	n/a	n/a	n/a	n/a	n/a	n/a	n/a	n/a	n/a	n/a	n/a	n/a	n/a	n/a	n/a	n/a	n/a	n/a	n/a	n/a	n/a	n/a	n/a	n/a	n/a	n/a	n/a	n/a	n/a	n/a	12	1	2023-02-01_18h39.33.684	test_final	2022.2.4	60.04332728732733	n/a
n/a	utils/nb_masks/NeuScrambledFW_31M_NE_O.BMP	utils/nb_masks/NeuScrambledBW_31M_NE_O.BMP	n/a	n/a	3.0	n/a	n/a	n/a	n/a	n/a	n/a	n/a	n/a	n/a	n/a	n/a	n/a	n/a	n/a	n/a	n/a	n/a	n/a	n/a	n/a	0.0	0.0	0.0	2.0	4.0	0.0	4.0	0.0	n/a	n/a	n/a	n/a	0.0	0.0	0.0	0.0	n/a	n/a	n/a	n/a	n/a	n/a	n/a	n/a	n/a	n/a	n/a	n/a	n/a	n/a	n/a	n/a	n/a	579.583595899865	581.6650566998869	2.0799999999999983	n/a	n/a	n/a	n/a	n/a	n/a	n/a	n/a	n/a	n/a	n/a	n/a	n/a	n/a	n/a	n/a	n/a	n/a	n/a	n/a	n/a	n/a	n/a	n/a	n/a	n/a	n/a	n/a	n/a	n/a	n/a	n/a	n/a	n/a	n/a	n/a	n/a	n/a	n/a	n/a	n/a	n/a	n/a	n/a	n/a	n/a	n/a	n/a	n/a	n/a	1.1499971151351929e-05	utils/nb_masks/NeuScrambledFW_31M_NE_O.BMP	0.1648377000819891	10.0	4.09991480410099e-06	0.032335199881345	NimStim_Database/Images/31M_NE_O.BMP	3.6999117583036414e-06	utils/nb_masks/NeuScrambledBW_31M_NE_O.BMP	0.0330507000908255	7.800059393048286e-06	MR2_database/bm14.tif	0.0004346999339759	n/a	n/a	n/a	n/a	582.6962247998454	582.6962247998454	space	2.213042200077325	n/a	n/a	n/a	n/a	n/a	n/a	n/a	n/a	n/a	n/a	n/a	n/a	n/a	n/a	n/a	n/a	12	1	2023-02-01_18h39.33.684	test_final	2022.2.4	60.04332728732733	n/a
n/a	n/a	n/a	n/a	n/a	3.0	n/a	n/a	n/a	n/a	n/a	n/a	n/a	n/a	n/a	n/a	n/a	n/a	n/a	n/a	n/a	n/a	n/a	n/a	n/a	n/a	0.0	0.0	0.0	2.0	4.0	0.0	4.0	0.0	n/a	n/a	n/a	n/a	n/a	n/a	n/a	n/a	n/a	n/a	n/a	n/a	n/a	n/a	n/a	n/a	n/a	n/a	n/a	n/a	n/a	n/a	n/a	n/a	n/a	n/a	n/a	n/a	n/a	n/a	n/a	n/a	n/a	n/a	n/a	n/a	n/a	n/a	n/a	n/a	n/a	n/a	n/a	n/a	n/a	n/a	n/a	n/a	n/a	n/a	584.9277688998263	n/a	n/a	n/a	n/a	n/a	n/a	n/a	n/a	n/a	n/a	n/a	n/a	n/a	n/a	n/a	n/a	n/a	n/a	n/a	n/a	n/a	n/a	n/a	n/a	n/a	n/a	n/a	n/a	n/a	n/a	n/a	n/a	n/a	n/a	n/a	n/a	n/a	n/a	n/a	n/a	n/a	n/a	n/a	n/a	n/a	n/a	n/a	n/a	n/a	n/a	n/a	n/a	n/a	n/a	n/a	n/a	n/a	n/a	n/a	n/a	n/a	n/a	n/a	n/a	12	1	2023-02-01_18h39.33.684	test_final	2022.2.4	60.04332728732733	n/a
n/a	utils/nb_masks/EmoScrambledFW_40M_AN_O.BMP	utils/nb_masks/EmoScrambledBW_40M_AN_O.BMP	n/a	n/a	3.0	n/a	n/a	n/a	n/a	n/a	n/a	n/a	n/a	n/a	n/a	n/a	n/a	n/a	n/a	n/a	n/a	n/a	n/a	n/a	n/a	0.0	0.0	0.0	2.0	5.0	0.0	5.0	0.0	0.0	0.0	0.0	0.0	n/a	n/a	n/a	n/a	n/a	n/a	n/a	n/a	n/a	n/a	n/a	n/a	n/a	n/a	n/a	n/a	n/a	n/a	n/a	n/a	n/a	586.9421377999242	589.1727257999592	2.2199999999999958	n/a	n/a	n/a	n/a	n/a	n/a	n/a	n/a	n/a	n/a	n/a	n/a	n/a	n/a	n/a	n/a	n/a	n/a	n/a	n/a	n/a	n/a	n/a	n/a	n/a	n/a	n/a	n/a	n/a	n/a	n/a	n/a	n/a	n/a	n/a	n/a	n/a	n/a	n/a	n/a	n/a	n/a	n/a	n/a	n/a	n/a	n/a	n/a	n/a	n/a	4.600035026669502e-06	utils/nb_masks/EmoScrambledFW_40M_AN_O.BMP	0.1165579999797046	7.0	4.200031980872154e-06	0.0315874998923391	NimStim_Database/Images/40M_AN_O.BMP	4.00003045797348e-06	utils/nb_masks/EmoScrambledBW_40M_AN_O.BMP	0.033225400140509	4.299916326999664e-06	MR2_database/wm08.tif	0.0004920000210404	left	0.5238143999595195	589.9331173999235	590.9377546999604	n/a	n/a	n/a	n/a	n/a	n/a	n/a	n/a	n/a	n/a	n/a	n/a	n/a	n/a	n/a	n/a	n/a	n/a	n/a	n/a	12	1	2023-02-01_18h39.33.684	test_final	2022.2.4	60.04332728732733	n/a
n/a	n/a	n/a	n/a	n/a	3.0	n/a	n/a	n/a	n/a	n/a	n/a	n/a	n/a	n/a	n/a	n/a	n/a	n/a	n/a	n/a	n/a	n/a	n/a	n/a	n/a	0.0	0.0	0.0	2.0	5.0	0.0	5.0	0.0	n/a	n/a	n/a	n/a	n/a	n/a	n/a	n/a	0.0	0.0	0.0	0.0	n/a	n/a	n/a	n/a	n/a	n/a	n/a	n/a	n/a	n/a	n/a	n/a	n/a	n/a	n/a	n/a	n/a	n/a	n/a	n/a	n/a	n/a	n/a	n/a	n/a	n/a	590.9377546999604	590.9377546999604	2.0	0.3681753999553621	591.3373608998954	591.3373608998954	591.3373608998954	591.3373608998954	591.3373608998954	591.3373608998954	1.0	0.3102032002061605	n/a	n/a	n/a	n/a	n/a	n/a	n/a	n/a	n/a	n/a	n/a	n/a	n/a	n/a	n/a	n/a	n/a	n/a	n/a	n/a	n/a	n/a	n/a	n/a	n/a	n/a	n/a	n/a	n/a	n/a	n/a	n/a	n/a	n/a	n/a	n/a	n/a	n/a	n/a	n/a	n/a	n/a	n/a	n/a	n/a	n/a	n/a	n/a	n/a	n/a	n/a	n/a	n/a	n/a	n/a	n/a	n/a	n/a	n/a	n/a	n/a	n/a	n/a	n/a	n/a	12	1	2023-02-01_18h39.33.684	test_final	2022.2.4	60.04332728732733	n/a
n/a	n/a	n/a	n/a	n/a	3.0	n/a	n/a	n/a	n/a	n/a	n/a	n/a	n/a	n/a	n/a	n/a	n/a	n/a	n/a	n/a	n/a	n/a	n/a	n/a	n/a	0.0	0.0	0.0	2.0	5.0	0.0	5.0	0.0	n/a	n/a	n/a	n/a	n/a	n/a	n/a	n/a	n/a	n/a	n/a	n/a	n/a	n/a	n/a	n/a	n/a	n/a	n/a	n/a	n/a	n/a	n/a	n/a	n/a	n/a	n/a	n/a	n/a	n/a	n/a	n/a	n/a	n/a	n/a	n/a	n/a	n/a	n/a	n/a	n/a	n/a	n/a	n/a	n/a	n/a	n/a	n/a	n/a	n/a	591.6702973998617	n/a	n/a	n/a	n/a	n/a	n/a	n/a	n/a	n/a	n/a	n/a	n/a	n/a	n/a	n/a	n/a	n/a	n/a	n/a	n/a	n/a	n/a	n/a	n/a	n/a	n/a	n/a	n/a	n/a	n/a	n/a	n/a	n/a	n/a	n/a	n/a	n/a	n/a	n/a	n/a	n/a	n/a	n/a	n/a	n/a	n/a	n/a	n/a	n/a	n/a	n/a	n/a	n/a	n/a	n/a	n/a	n/a	n/a	n/a	n/a	n/a	n/a	n/a	n/a	12	1	2023-02-01_18h39.33.684	test_final	2022.2.4	60.04332728732733	n/a
n/a	utils/nb_masks/EmoScrambledFW_38M_AN_O.BMP	utils/nb_masks/EmoScrambledBW_38M_AN_O.BMP	n/a	n/a	3.0	n/a	n/a	n/a	n/a	n/a	n/a	n/a	n/a	n/a	n/a	n/a	n/a	n/a	n/a	n/a	n/a	n/a	n/a	n/a	n/a	0.0	0.0	0.0	2.0	6.0	0.0	6.0	0.0	n/a	n/a	n/a	n/a	0.0	0.0	0.0	0.0	n/a	n/a	n/a	n/a	n/a	n/a	n/a	n/a	n/a	n/a	n/a	n/a	n/a	n/a	n/a	n/a	n/a	593.6847542999312	596.0488596998621	2.3499999999999925	n/a	n/a	n/a	n/a	n/a	n/a	n/a	n/a	n/a	n/a	n/a	n/a	n/a	n/a	n/a	n/a	n/a	n/a	n/a	n/a	n/a	n/a	n/a	n/a	n/a	n/a	n/a	n/a	n/a	n/a	n/a	n/a	n/a	n/a	n/a	n/a	n/a	n/a	n/a	n/a	n/a	n/a	n/a	n/a	n/a	n/a	n/a	n/a	n/a	n/a	6.200047209858894e-06	utils/nb_masks/EmoScrambledFW_38M_AN_O.BMP	0.0994722999166697	6.0	5.699926987290382e-06	0.0312333998735994	NimStim_Database/Images/38M_AN_O.BMP	5.400041118264198e-06	utils/nb_masks/EmoScrambledBW_38M_AN_O.BMP	0.0333451998885721	4.400033503770828e-06	MR2_database/wm03.tif	0.0004799000453203	n/a	n/a	n/a	n/a	597.0176049999427	597.0176049999427	space	1.8689584000967443	n/a	n/a	n/a	n/a	n/a	n/a	n/a	n/a	n/a	n/a	n/a	n/a	n/a	n/a	n/a	n/a	12	1	2023-02-01_18h39.33.684	test_final	2022.2.4	60.04332728732733	n/a
n/a	n/a	n/a	n/a	n/a	3.0	n/a	n/a	n/a	n/a	n/a	n/a	n/a	n/a	n/a	n/a	n/a	n/a	n/a	n/a	n/a	n/a	n/a	n/a	n/a	n/a	0.0	0.0	0.0	2.0	6.0	0.0	6.0	0.0	n/a	n/a	n/a	n/a	n/a	n/a	n/a	n/a	n/a	n/a	n/a	n/a	n/a	n/a	n/a	n/a	n/a	n/a	n/a	n/a	n/a	n/a	n/a	n/a	n/a	n/a	n/a	n/a	n/a	n/a	n/a	n/a	n/a	n/a	n/a	n/a	n/a	n/a	n/a	n/a	n/a	n/a	n/a	n/a	n/a	n/a	n/a	n/a	n/a	n/a	598.9124198998325	n/a	n/a	n/a	n/a	n/a	n/a	n/a	n/a	n/a	n/a	n/a	n/a	n/a	n/a	n/a	n/a	n/a	n/a	n/a	n/a	n/a	n/a	n/a	n/a	n/a	n/a	n/a	n/a	n/a	n/a	n/a	n/a	n/a	n/a	n/a	n/a	n/a	n/a	n/a	n/a	n/a	n/a	n/a	n/a	n/a	n/a	n/a	n/a	n/a	n/a	n/a	n/a	n/a	n/a	n/a	n/a	n/a	n/a	n/a	n/a	n/a	n/a	n/a	n/a	12	1	2023-02-01_18h39.33.684	test_final	2022.2.4	60.04332728732733	n/a
n/a	utils/nb_masks/EmoScrambledFW_24M_AN_C.BMP	utils/nb_masks/EmoScrambledBW_24M_AN_C.BMP	n/a	n/a	3.0	n/a	n/a	n/a	n/a	n/a	n/a	n/a	n/a	n/a	n/a	n/a	n/a	n/a	n/a	n/a	n/a	n/a	n/a	n/a	n/a	0.0	0.0	0.0	2.0	7.0	0.0	7.0	0.0	0.0	0.0	0.0	0.0	n/a	n/a	n/a	n/a	n/a	n/a	n/a	n/a	n/a	n/a	n/a	n/a	n/a	n/a	n/a	n/a	n/a	n/a	n/a	n/a	n/a	600.9268324999139	603.1077560000122	2.1699999999999964	n/a	n/a	n/a	n/a	n/a	n/a	n/a	n/a	n/a	n/a	n/a	n/a	n/a	n/a	n/a	n/a	n/a	n/a	n/a	n/a	n/a	n/a	n/a	n/a	n/a	n/a	n/a	n/a	n/a	n/a	n/a	n/a	n/a	n/a	n/a	n/a	n/a	n/a	n/a	n/a	n/a	n/a	n/a	n/a	n/a	n/a	n/a	n/a	n/a	n/a	6.200047209858894e-06	utils/nb_masks/EmoScrambledFW_24M_AN_C.BMP	0.1329227001406252	8.0	6.400048732757568e-06	0.0312806000001728	NimStim_Database/Images/24M_AN_C.BMP	5.699926987290382e-06	utils/nb_masks/EmoScrambledBW_24M_AN_C.BMP	0.0331099000759422	4.700152203440666e-06	MR2_database/wf05.tif	0.0005415000487118	right	0.4797131000086665	603.8446408999152	n/a	n/a	n/a	n/a	n/a	n/a	n/a	n/a	n/a	n/a	n/a	n/a	n/a	n/a	n/a	n/a	n/a	n/a	n/a	n/a	n/a	12	1	2023-02-01_18h39.33.684	test_final	2022.2.4	60.04332728732733	n/a
n/a	n/a	n/a	n/a	n/a	3.0	n/a	n/a	n/a	n/a	n/a	n/a	n/a	n/a	n/a	n/a	n/a	n/a	n/a	n/a	n/a	n/a	n/a	n/a	n/a	n/a	0.0	0.0	0.0	2.0	7.0	0.0	7.0	0.0	n/a	n/a	n/a	n/a	n/a	n/a	n/a	n/a	0.0	0.0	0.0	0.0	n/a	n/a	n/a	n/a	n/a	n/a	n/a	n/a	n/a	n/a	n/a	n/a	n/a	n/a	n/a	n/a	n/a	n/a	n/a	n/a	n/a	n/a	n/a	n/a	n/a	n/a	604.855547899846	604.855547899846	1.0	1.204862100072205	606.087713399902	606.087713399902	606.087713399902	606.087713399902	606.087713399902	606.087713399902	4.0	0.5174602000042796	n/a	n/a	n/a	n/a	n/a	n/a	n/a	n/a	n/a	n/a	n/a	n/a	n/a	n/a	n/a	n/a	n/a	n/a	n/a	n/a	n/a	n/a	n/a	n/a	n/a	n/a	n/a	n/a	n/a	n/a	n/a	n/a	n/a	n/a	n/a	n/a	n/a	n/a	n/a	n/a	n/a	n/a	n/a	n/a	n/a	n/a	n/a	n/a	n/a	n/a	n/a	n/a	n/a	n/a	n/a	n/a	n/a	n/a	n/a	n/a	n/a	n/a	n/a	n/a	n/a	12	1	2023-02-01_18h39.33.684	test_final	2022.2.4	60.04332728732733	n/a
n/a	n/a	n/a	n/a	n/a	3.0	n/a	n/a	n/a	n/a	n/a	n/a	n/a	n/a	n/a	n/a	n/a	n/a	n/a	n/a	n/a	n/a	n/a	n/a	n/a	n/a	0.0	0.0	0.0	2.0	7.0	0.0	7.0	0.0	n/a	n/a	n/a	n/a	n/a	n/a	n/a	n/a	n/a	n/a	n/a	n/a	n/a	n/a	n/a	n/a	n/a	n/a	n/a	n/a	n/a	n/a	n/a	n/a	n/a	n/a	n/a	n/a	n/a	n/a	n/a	n/a	n/a	n/a	n/a	n/a	n/a	n/a	n/a	n/a	n/a	n/a	n/a	n/a	n/a	n/a	n/a	n/a	n/a	n/a	606.6370821997989	n/a	n/a	n/a	n/a	n/a	n/a	n/a	n/a	n/a	n/a	n/a	n/a	n/a	n/a	n/a	n/a	n/a	n/a	n/a	n/a	n/a	n/a	n/a	n/a	n/a	n/a	n/a	n/a	n/a	n/a	n/a	n/a	n/a	n/a	n/a	n/a	n/a	n/a	n/a	n/a	n/a	n/a	n/a	n/a	n/a	n/a	n/a	n/a	n/a	n/a	n/a	n/a	n/a	n/a	n/a	n/a	n/a	n/a	n/a	n/a	n/a	n/a	n/a	n/a	12	1	2023-02-01_18h39.33.684	test_final	2022.2.4	60.04332728732733	n/a
n/a	utils/nb_masks/EmoScrambledFW_09F_AN_C.BMP	utils/nb_masks/EmoScrambledBW_09F_AN_C.BMP	n/a	n/a	3.0	n/a	n/a	n/a	n/a	n/a	n/a	n/a	n/a	n/a	n/a	n/a	n/a	n/a	n/a	n/a	n/a	n/a	n/a	n/a	n/a	0.0	0.0	0.0	2.0	8.0	0.0	8.0	0.0	0.0	0.0	0.0	0.0	n/a	n/a	n/a	n/a	n/a	n/a	n/a	n/a	n/a	n/a	n/a	n/a	n/a	n/a	n/a	n/a	n/a	n/a	n/a	n/a	n/a	608.6517066999804	611.0154369999655	2.3599999999999923	n/a	n/a	n/a	n/a	n/a	n/a	n/a	n/a	n/a	n/a	n/a	n/a	n/a	n/a	n/a	n/a	n/a	n/a	n/a	n/a	n/a	n/a	n/a	n/a	n/a	n/a	n/a	n/a	n/a	n/a	n/a	n/a	n/a	n/a	n/a	n/a	n/a	n/a	n/a	n/a	n/a	n/a	n/a	n/a	n/a	n/a	n/a	n/a	n/a	n/a	5.200039595365524e-06	utils/nb_masks/EmoScrambledFW_09F_AN_C.BMP	0.1161609999835491	7.0	5.00003807246685e-06	0.0317452000454068	utils/no_prime.png	5.299923941493034e-06	utils/nb_masks/EmoScrambledBW_09F_AN_C.BMP	0.0331286999862641	4.600035026669502e-06	MR2_database/am03.tif	0.0005169999785721	right	0.5528132000472397	611.8045373000205	612.8134967999067	n/a	n/a	n/a	n/a	n/a	n/a	n/a	n/a	n/a	n/a	n/a	n/a	n/a	n/a	n/a	n/a	n/a	n/a	n/a	n/a	12	1	2023-02-01_18h39.33.684	test_final	2022.2.4	60.04332728732733	n/a
n/a	n/a	n/a	n/a	n/a	3.0	n/a	n/a	n/a	n/a	n/a	n/a	n/a	n/a	n/a	n/a	n/a	n/a	n/a	n/a	n/a	n/a	n/a	n/a	n/a	n/a	0.0	0.0	0.0	2.0	8.0	0.0	8.0	0.0	n/a	n/a	n/a	n/a	n/a	n/a	n/a	n/a	0.0	0.0	0.0	0.0	n/a	n/a	n/a	n/a	n/a	n/a	n/a	n/a	n/a	n/a	n/a	n/a	n/a	n/a	n/a	n/a	n/a	n/a	n/a	n/a	n/a	n/a	n/a	n/a	n/a	n/a	612.8134967999067	612.8134967999067	2.0	0.6592656001448631	613.496370999841	613.496370999841	613.496370999841	613.496370999841	613.496370999841	613.496370999841	1.0	0.2911637001670897	n/a	n/a	n/a	n/a	n/a	n/a	n/a	n/a	n/a	n/a	n/a	n/a	n/a	n/a	n/a	n/a	n/a	n/a	n/a	n/a	n/a	n/a	n/a	n/a	n/a	n/a	n/a	n/a	n/a	n/a	n/a	n/a	n/a	n/a	n/a	n/a	n/a	n/a	n/a	n/a	n/a	n/a	n/a	n/a	n/a	n/a	n/a	n/a	n/a	n/a	n/a	n/a	n/a	n/a	n/a	n/a	n/a	n/a	n/a	n/a	n/a	n/a	n/a	n/a	n/a	12	1	2023-02-01_18h39.33.684	test_final	2022.2.4	60.04332728732733	n/a
n/a	n/a	n/a	n/a	n/a	3.0	n/a	n/a	n/a	n/a	n/a	n/a	n/a	n/a	n/a	n/a	n/a	n/a	n/a	n/a	n/a	n/a	n/a	n/a	n/a	n/a	0.0	0.0	0.0	2.0	8.0	0.0	8.0	0.0	n/a	n/a	n/a	n/a	n/a	n/a	n/a	n/a	n/a	n/a	n/a	n/a	n/a	n/a	n/a	n/a	n/a	n/a	n/a	n/a	n/a	n/a	n/a	n/a	n/a	n/a	n/a	n/a	n/a	n/a	n/a	n/a	n/a	n/a	n/a	n/a	n/a	n/a	n/a	n/a	n/a	n/a	n/a	n/a	n/a	n/a	n/a	n/a	n/a	n/a	613.8127502999268	n/a	n/a	n/a	n/a	n/a	n/a	n/a	n/a	n/a	n/a	n/a	n/a	n/a	n/a	n/a	n/a	n/a	n/a	n/a	n/a	n/a	n/a	n/a	n/a	n/a	n/a	n/a	n/a	n/a	n/a	n/a	n/a	n/a	n/a	n/a	n/a	n/a	n/a	n/a	n/a	n/a	n/a	n/a	n/a	n/a	n/a	n/a	n/a	n/a	n/a	n/a	n/a	n/a	n/a	n/a	n/a	n/a	n/a	n/a	n/a	n/a	n/a	n/a	n/a	12	1	2023-02-01_18h39.33.684	test_final	2022.2.4	60.04332728732733	n/a
n/a	utils/nb_masks/NeuScrambledFW_43M_NE_C.BMP	utils/nb_masks/NeuScrambledBW_43M_NE_C.BMP	n/a	n/a	3.0	n/a	n/a	n/a	n/a	n/a	n/a	n/a	n/a	n/a	n/a	n/a	n/a	n/a	n/a	n/a	n/a	n/a	n/a	n/a	n/a	0.0	0.0	0.0	2.0	9.0	0.0	9.0	0.0	0.0	0.0	0.0	0.0	n/a	n/a	n/a	n/a	n/a	n/a	n/a	n/a	n/a	n/a	n/a	n/a	n/a	n/a	n/a	n/a	n/a	n/a	n/a	n/a	n/a	615.827040300006	618.2742107999511	2.4399999999999906	n/a	n/a	n/a	n/a	n/a	n/a	n/a	n/a	n/a	n/a	n/a	n/a	n/a	n/a	n/a	n/a	n/a	n/a	n/a	n/a	n/a	n/a	n/a	n/a	n/a	n/a	n/a	n/a	n/a	n/a	n/a	n/a	n/a	n/a	n/a	n/a	n/a	n/a	n/a	n/a	n/a	n/a	n/a	n/a	n/a	n/a	n/a	n/a	n/a	n/a	5.200039595365524e-06	utils/nb_masks/NeuScrambledFW_43M_NE_C.BMP	0.1160303000360727	7.0	5.700159817934036e-06	0.0318857000675052	utils/no_prime.png	5.00003807246685e-06	utils/nb_masks/NeuScrambledBW_43M_NE_C.BMP	0.0331415000837296	5.700159817934036e-06	MR2_database/wf11.tif	0.0005573001690208	left	0.5773348000366241	619.094145799987	n/a	n/a	n/a	n/a	n/a	n/a	n/a	n/a	n/a	n/a	n/a	n/a	n/a	n/a	n/a	n/a	n/a	n/a	n/a	n/a	n/a	12	1	2023-02-01_18h39.33.684	test_final	2022.2.4	60.04332728732733	n/a
n/a	n/a	n/a	n/a	n/a	3.0	n/a	n/a	n/a	n/a	n/a	n/a	n/a	n/a	n/a	n/a	n/a	n/a	n/a	n/a	n/a	n/a	n/a	n/a	n/a	n/a	0.0	0.0	0.0	2.0	9.0	0.0	9.0	0.0	n/a	n/a	n/a	n/a	n/a	n/a	n/a	n/a	0.0	0.0	0.0	0.0	n/a	n/a	n/a	n/a	n/a	n/a	n/a	n/a	n/a	n/a	n/a	n/a	n/a	n/a	n/a	n/a	n/a	n/a	n/a	n/a	n/a	n/a	n/a	n/a	n/a	n/a	620.1055784998462	620.1055784998462	3.0	0.4096649000421166	620.538567799842	620.538567799842	620.538567799842	620.538567799842	620.538567799842	620.538567799842	4.0	0.4337047000881284	n/a	n/a	n/a	n/a	n/a	n/a	n/a	n/a	n/a	n/a	n/a	n/a	n/a	n/a	n/a	n/a	n/a	n/a	n/a	n/a	n/a	n/a	n/a	n/a	n/a	n/a	n/a	n/a	n/a	n/a	n/a	n/a	n/a	n/a	n/a	n/a	n/a	n/a	n/a	n/a	n/a	n/a	n/a	n/a	n/a	n/a	n/a	n/a	n/a	n/a	n/a	n/a	n/a	n/a	n/a	n/a	n/a	n/a	n/a	n/a	n/a	n/a	n/a	n/a	n/a	12	1	2023-02-01_18h39.33.684	test_final	2022.2.4	60.04332728732733	n/a
n/a	n/a	n/a	n/a	n/a	3.0	n/a	n/a	n/a	n/a	n/a	n/a	n/a	n/a	n/a	n/a	n/a	n/a	n/a	n/a	n/a	n/a	n/a	n/a	n/a	n/a	0.0	0.0	0.0	2.0	9.0	0.0	9.0	0.0	n/a	n/a	n/a	n/a	n/a	n/a	n/a	n/a	n/a	n/a	n/a	n/a	n/a	n/a	n/a	n/a	n/a	n/a	n/a	n/a	n/a	n/a	n/a	n/a	n/a	n/a	n/a	n/a	n/a	n/a	n/a	n/a	n/a	n/a	n/a	n/a	n/a	n/a	n/a	n/a	n/a	n/a	n/a	n/a	n/a	n/a	n/a	n/a	n/a	n/a	621.0047508999705	n/a	n/a	n/a	n/a	n/a	n/a	n/a	n/a	n/a	n/a	n/a	n/a	n/a	n/a	n/a	n/a	n/a	n/a	n/a	n/a	n/a	n/a	n/a	n/a	n/a	n/a	n/a	n/a	n/a	n/a	n/a	n/a	n/a	n/a	n/a	n/a	n/a	n/a	n/a	n/a	n/a	n/a	n/a	n/a	n/a	n/a	n/a	n/a	n/a	n/a	n/a	n/a	n/a	n/a	n/a	n/a	n/a	n/a	n/a	n/a	n/a	n/a	n/a	n/a	12	1	2023-02-01_18h39.33.684	test_final	2022.2.4	60.04332728732733	n/a
n/a	utils/nb_masks/EmoScrambledFW_16F_AN_C.BMP	utils/nb_masks/EmoScrambledBW_16F_AN_C.BMP	n/a	n/a	3.0	n/a	n/a	n/a	n/a	n/a	n/a	n/a	n/a	n/a	n/a	n/a	n/a	n/a	n/a	n/a	n/a	n/a	n/a	n/a	n/a	0.0	0.0	0.0	2.0	10.0	0.0	10.0	0.0	0.0	0.0	0.0	0.0	n/a	n/a	n/a	n/a	n/a	n/a	n/a	n/a	n/a	n/a	n/a	n/a	n/a	n/a	n/a	n/a	n/a	n/a	n/a	n/a	n/a	623.0191684998572	625.4164822997991	2.389999999999992	n/a	n/a	n/a	n/a	n/a	n/a	n/a	n/a	n/a	n/a	n/a	n/a	n/a	n/a	n/a	n/a	n/a	n/a	n/a	n/a	n/a	n/a	n/a	n/a	n/a	n/a	n/a	n/a	n/a	n/a	n/a	n/a	n/a	n/a	n/a	n/a	n/a	n/a	n/a	n/a	n/a	n/a	n/a	n/a	n/a	n/a	n/a	n/a	n/a	n/a	5.299923941493034e-06	utils/nb_masks/EmoScrambledFW_16F_AN_C.BMP	0.1665032999590039	10.0	5.400041118264198e-06	0.0315745000261813	utils/no_prime.png	5.200039595365524e-06	utils/nb_masks/EmoScrambledBW_16F_AN_C.BMP	0.0331657999195158	4.999805241823196e-06	MR2_database/am08.tif	0.0004874998703598	right	0.452179699903354	626.1525336999912	n/a	n/a	n/a	n/a	n/a	n/a	n/a	n/a	n/a	n/a	n/a	n/a	n/a	n/a	n/a	n/a	n/a	n/a	n/a	n/a	n/a	12	1	2023-02-01_18h39.33.684	test_final	2022.2.4	60.04332728732733	n/a
n/a	n/a	n/a	n/a	n/a	3.0	n/a	n/a	n/a	n/a	n/a	n/a	n/a	n/a	n/a	n/a	n/a	n/a	n/a	n/a	n/a	n/a	n/a	n/a	n/a	n/a	0.0	0.0	0.0	2.0	10.0	0.0	10.0	0.0	n/a	n/a	n/a	n/a	n/a	n/a	n/a	n/a	0.0	0.0	0.0	0.0	n/a	n/a	n/a	n/a	n/a	n/a	n/a	n/a	n/a	n/a	n/a	n/a	n/a	n/a	n/a	n/a	n/a	n/a	n/a	n/a	n/a	n/a	n/a	n/a	n/a	n/a	627.1648421999998	627.1648421999998	2.0	0.4042605999857187	627.5975992998574	627.5975992998574	627.5975992998574	627.5975992998574	627.5975992998574	627.5975992998574	1.0	0.7094978000968695	n/a	n/a	n/a	n/a	n/a	n/a	n/a	n/a	n/a	n/a	n/a	n/a	n/a	n/a	n/a	n/a	n/a	n/a	n/a	n/a	n/a	n/a	n/a	n/a	n/a	n/a	n/a	n/a	n/a	n/a	n/a	n/a	n/a	n/a	n/a	n/a	n/a	n/a	n/a	n/a	n/a	n/a	n/a	n/a	n/a	n/a	n/a	n/a	n/a	n/a	n/a	n/a	n/a	n/a	n/a	n/a	n/a	n/a	n/a	n/a	n/a	n/a	n/a	n/a	n/a	12	1	2023-02-01_18h39.33.684	test_final	2022.2.4	60.04332728732733	n/a
n/a	n/a	n/a	n/a	n/a	3.0	n/a	n/a	n/a	n/a	n/a	n/a	n/a	n/a	n/a	n/a	n/a	n/a	n/a	n/a	n/a	n/a	n/a	n/a	n/a	n/a	0.0	0.0	0.0	2.0	10.0	0.0	10.0	0.0	n/a	n/a	n/a	n/a	n/a	n/a	n/a	n/a	n/a	n/a	n/a	n/a	n/a	n/a	n/a	n/a	n/a	n/a	n/a	n/a	n/a	n/a	n/a	n/a	n/a	n/a	n/a	n/a	n/a	n/a	n/a	n/a	n/a	n/a	n/a	n/a	n/a	n/a	n/a	n/a	n/a	n/a	n/a	n/a	n/a	n/a	n/a	n/a	n/a	n/a	628.330152399838	n/a	n/a	n/a	n/a	n/a	n/a	n/a	n/a	n/a	n/a	n/a	n/a	n/a	n/a	n/a	n/a	n/a	n/a	n/a	n/a	n/a	n/a	n/a	n/a	n/a	n/a	n/a	n/a	n/a	n/a	n/a	n/a	n/a	n/a	n/a	n/a	n/a	n/a	n/a	n/a	n/a	n/a	n/a	n/a	n/a	n/a	n/a	n/a	n/a	n/a	n/a	n/a	n/a	n/a	n/a	n/a	n/a	n/a	n/a	n/a	n/a	n/a	n/a	n/a	12	1	2023-02-01_18h39.33.684	test_final	2022.2.4	60.04332728732733	n/a
n/a	utils/nb_masks/EmoScrambledFW_09F_AN_O.BMP	utils/nb_masks/EmoScrambledBW_09F_AN_O.BMP	n/a	n/a	3.0	n/a	n/a	n/a	n/a	n/a	n/a	n/a	n/a	n/a	n/a	n/a	n/a	n/a	n/a	n/a	n/a	n/a	n/a	n/a	n/a	0.0	0.0	0.0	2.0	11.0	0.0	11.0	0.0	0.0	0.0	0.0	0.0	n/a	n/a	n/a	n/a	n/a	n/a	n/a	n/a	n/a	n/a	n/a	n/a	n/a	n/a	n/a	n/a	n/a	n/a	n/a	n/a	n/a	630.3441970997956	632.7418086999096	2.389999999999992	n/a	n/a	n/a	n/a	n/a	n/a	n/a	n/a	n/a	n/a	n/a	n/a	n/a	n/a	n/a	n/a	n/a	n/a	n/a	n/a	n/a	n/a	n/a	n/a	n/a	n/a	n/a	n/a	n/a	n/a	n/a	n/a	n/a	n/a	n/a	n/a	n/a	n/a	n/a	n/a	n/a	n/a	n/a	n/a	n/a	n/a	n/a	n/a	n/a	n/a	5.699926987290382e-06	utils/nb_masks/EmoScrambledFW_09F_AN_O.BMP	0.11637769988738	7.0	5.200039595365524e-06	0.0313329000491648	NimStim_Database/Images/09F_AN_O.BMP	4.800036549568176e-06	utils/nb_masks/EmoScrambledBW_09F_AN_O.BMP	0.0332826001103967	4.600035026669502e-06	MR2_database/wm09.tif	0.0005268000531941	left	0.1147727000061422	633.0890238999855	634.090094299987	n/a	n/a	n/a	n/a	n/a	n/a	n/a	n/a	n/a	n/a	n/a	n/a	n/a	n/a	n/a	n/a	n/a	n/a	n/a	n/a	12	1	2023-02-01_18h39.33.684	test_final	2022.2.4	60.04332728732733	n/a
n/a	n/a	n/a	n/a	n/a	3.0	n/a	n/a	n/a	n/a	n/a	n/a	n/a	n/a	n/a	n/a	n/a	n/a	n/a	n/a	n/a	n/a	n/a	n/a	n/a	n/a	0.0	0.0	0.0	2.0	11.0	0.0	11.0	0.0	n/a	n/a	n/a	n/a	n/a	n/a	n/a	n/a	0.0	0.0	0.0	0.0	n/a	n/a	n/a	n/a	n/a	n/a	n/a	n/a	n/a	n/a	n/a	n/a	n/a	n/a	n/a	n/a	n/a	n/a	n/a	n/a	n/a	n/a	n/a	n/a	n/a	n/a	634.090094299987	634.090094299987	3.0	0.8861503999214619	635.0061137999874	635.0061137999874	635.0061137999874	635.0061137999874	635.0061137999874	635.0061137999874	1.0	0.4044515001587569	n/a	n/a	n/a	n/a	n/a	n/a	n/a	n/a	n/a	n/a	n/a	n/a	n/a	n/a	n/a	n/a	n/a	n/a	n/a	n/a	n/a	n/a	n/a	n/a	n/a	n/a	n/a	n/a	n/a	n/a	n/a	n/a	n/a	n/a	n/a	n/a	n/a	n/a	n/a	n/a	n/a	n/a	n/a	n/a	n/a	n/a	n/a	n/a	n/a	n/a	n/a	n/a	n/a	n/a	n/a	n/a	n/a	n/a	n/a	n/a	n/a	n/a	n/a	n/a	n/a	12	1	2023-02-01_18h39.33.684	test_final	2022.2.4	60.04332728732733	n/a
n/a	n/a	n/a	n/a	n/a	3.0	n/a	n/a	n/a	n/a	n/a	n/a	n/a	n/a	n/a	n/a	n/a	n/a	n/a	n/a	n/a	n/a	n/a	n/a	n/a	n/a	0.0	0.0	0.0	2.0	11.0	0.0	11.0	0.0	n/a	n/a	n/a	n/a	n/a	n/a	n/a	n/a	n/a	n/a	n/a	n/a	n/a	n/a	n/a	n/a	n/a	n/a	n/a	n/a	n/a	n/a	n/a	n/a	n/a	n/a	n/a	n/a	n/a	n/a	n/a	n/a	n/a	n/a	n/a	n/a	n/a	n/a	n/a	n/a	n/a	n/a	n/a	n/a	n/a	n/a	n/a	n/a	n/a	n/a	635.4387691000011	n/a	n/a	n/a	n/a	n/a	n/a	n/a	n/a	n/a	n/a	n/a	n/a	n/a	n/a	n/a	n/a	n/a	n/a	n/a	n/a	n/a	n/a	n/a	n/a	n/a	n/a	n/a	n/a	n/a	n/a	n/a	n/a	n/a	n/a	n/a	n/a	n/a	n/a	n/a	n/a	n/a	n/a	n/a	n/a	n/a	n/a	n/a	n/a	n/a	n/a	n/a	n/a	n/a	n/a	n/a	n/a	n/a	n/a	n/a	n/a	n/a	n/a	n/a	n/a	12	1	2023-02-01_18h39.33.684	test_final	2022.2.4	60.04332728732733	n/a
