prac_prime	forward_mask	backward_mask	practice_part1	practice_part2	condition	practice_1.thisRepN	practice_1.thisTrialN	practice_1.thisN	practice_1.thisIndex	practice_2.thisRepN	practice_2.thisTrialN	practice_2.thisN	practice_2.thisIndex	fbLoop1.thisRepN	fbLoop1.thisTrialN	fbLoop1.thisN	fbLoop1.thisIndex	fbLoop2.thisRepN	fbLoop2.thisTrialN	fbLoop2.thisN	fbLoop2.thisIndex	skip_prac.thisRepN	skip_prac.thisTrialN	skip_prac.thisN	skip_prac.thisIndex	block_conditions.thisRepN	block_conditions.thisTrialN	block_conditions.thisN	block_conditions.thisIndex	blocks.thisRepN	blocks.thisTrialN	blocks.thisN	blocks.thisIndex	feedback_con1.thisRepN	feedback_con1.thisTrialN	feedback_con1.thisN	feedback_con1.thisIndex	feedback_con2.thisRepN	feedback_con2.thisTrialN	feedback_con2.thisN	feedback_con2.thisIndex	skip_questionnaire.thisRepN	skip_questionnaire.thisTrialN	skip_questionnaire.thisN	skip_questionnaire.thisIndex	loading_screen.started	welcome_text.started	welcome_resp.started	welcome_resp.keys	welcome_resp.rt	Task_instructions.started	instructions_resp.started	Fake_demo.started	left_arrow_demo.started	Real_demo.started	right_arrow_demo.started	instructions_resp.keys	instructions_resp.rt	fix_cross.started	fix_cross.stopped	fixation_duration	pratice_target1.started	practice_part1_resp.started	prac_LeftArrow.started	prac_RightArrow.started	prac_FakeLabel1.started	prac_RealLabel1.started	practice_part1_resp.keys	practice_part1_resp.rt	prac_fb.started	ISI_prac.started	confidence_resp.started	confidence_scale.started	confidence_resp.keys	confidence_resp.rt	stim_gender.started	attention_resp.started	male_button.started	female_button.started	male_label.started	female_label.started	attention_resp.keys	attention_resp.rt	prestim_text.started	Practice_instructions.started	key_resp.started	key_resp.keys	key_resp.rt	pract_fw.started	pract_fw.stopped	pract_prime.started	pract_prime.stopped	pract_bm.started	pract_bm.stopped	pract_target2.started	prac_resp2.started	prac_LeftArrow_2.started	prac_RightArrow_2.started	prac_FakeLabel1_2.started	prac_RealLabel1_2.started	prac_resp2.keys	prac_fb3.started	prac_fb_resp.started	prac_fb_resp.keys	prac_fb_resp.rt	prac_resp2.rt	prac_fb2.started	prac_fb2.stopped	begin_expt.started	begin_expt.keys	begin_expt.rt	forward_mask.started	forward_mask.1	forward_mask.stopped	forward_mask_duration.frames	prime.started	prime.stopped	prime	backward_mask.started	backward_mask.1	backward_mask.stopped	target.started	target	target.stopped	rt_fb_2.started	feedback_resp.started	feedback_resp.keys	feedback_resp.rt	realness_response	realness_rt	rt_fb.started	rt_fb.stopped	break_text.started	break_resp.started	break_resp.keys	break_resp.rt	familiarity_scale.started	familiarity_resp.started	familiarity_resp.keys	familiarity_resp.rt	PAS_question.started	PAS_response.started	PAS_response.keys	PAS_response.rt	end_experiment.started	end_key.started	end_key.keys	end_key.rt	participant	session	date	expName	psychopyVersion	frameRate	Unnamed: 155
n/a	n/a	n/a	n/a	n/a	n/a	n/a	n/a	n/a	n/a	n/a	n/a	n/a	n/a	n/a	n/a	n/a	n/a	n/a	n/a	n/a	n/a	n/a	n/a	n/a	n/a	n/a	n/a	n/a	n/a	n/a	n/a	n/a	n/a	n/a	n/a	n/a	n/a	n/a	n/a	n/a	n/a	n/a	n/a	n/a	n/a	20.559871500357985	107.696959100198	107.696959100198	space	22.689868899527937	n/a	n/a	n/a	n/a	n/a	n/a	n/a	n/a	n/a	n/a	n/a	n/a	n/a	n/a	n/a	n/a	n/a	n/a	n/a	n/a	n/a	n/a	n/a	n/a	n/a	n/a	n/a	n/a	n/a	n/a	n/a	n/a	n/a	n/a	n/a	n/a	n/a	n/a	n/a	n/a	n/a	n/a	n/a	n/a	n/a	n/a	n/a	n/a	n/a	n/a	n/a	n/a	n/a	n/a	n/a	n/a	n/a	n/a	n/a	n/a	n/a	n/a	n/a	n/a	n/a	n/a	n/a	n/a	n/a	n/a	n/a	n/a	n/a	n/a	n/a	n/a	n/a	n/a	n/a	n/a	n/a	n/a	n/a	n/a	n/a	n/a	n/a	n/a	n/a	n/a	n/a	n/a	n/a	n/a	n/a	n/a	n/a	n/a	42	1	2023-03-14_11h08.45.655	test_final	2022.2.4	60.06485817809829	n/a
n/a	n/a	n/a	n/a	n/a	n/a	n/a	n/a	n/a	n/a	n/a	n/a	n/a	n/a	n/a	n/a	n/a	n/a	n/a	n/a	n/a	n/a	n/a	n/a	n/a	n/a	n/a	n/a	n/a	n/a	n/a	n/a	n/a	n/a	n/a	n/a	n/a	n/a	n/a	n/a	n/a	n/a	n/a	n/a	n/a	n/a	n/a	n/a	n/a	n/a	n/a	130.4216859000735	130.4216859000735	130.4216859000735	130.4216859000735	130.4216859000735	130.4216859000735	space	5.596434599719942	n/a	n/a	n/a	n/a	n/a	n/a	n/a	n/a	n/a	n/a	n/a	n/a	n/a	n/a	n/a	n/a	n/a	n/a	n/a	n/a	n/a	n/a	n/a	n/a	n/a	n/a	n/a	n/a	n/a	n/a	n/a	n/a	n/a	n/a	n/a	n/a	n/a	n/a	n/a	n/a	n/a	n/a	n/a	n/a	n/a	n/a	n/a	n/a	n/a	n/a	n/a	n/a	n/a	n/a	n/a	n/a	n/a	n/a	n/a	n/a	n/a	n/a	n/a	n/a	n/a	n/a	n/a	n/a	n/a	n/a	n/a	n/a	n/a	n/a	n/a	n/a	n/a	n/a	n/a	n/a	n/a	n/a	n/a	n/a	n/a	n/a	n/a	n/a	n/a	n/a	42	1	2023-03-14_11h08.45.655	test_final	2022.2.4	60.06485817809829	n/a
NimStim_Database/Images/16F_NE_O.BMP	utils/practice/ScrambledFW_16F_NE_O.BMP	utils/practice/ScrambledBW_16F_NE_O.BMP	utils/practice/fake_prac6.jpg	utils/practice/fake_prac15.jpg	n/a	0.0	0.0	0.0	7.0	n/a	n/a	n/a	n/a	n/a	n/a	n/a	n/a	n/a	n/a	n/a	n/a	n/a	n/a	n/a	n/a	n/a	n/a	n/a	n/a	n/a	n/a	n/a	n/a	n/a	n/a	n/a	n/a	n/a	n/a	n/a	n/a	n/a	n/a	n/a	n/a	n/a	n/a	n/a	n/a	n/a	n/a	n/a	n/a	n/a	n/a	n/a	n/a	n/a	136.0555823002942	138.58260959992185	2.46999999999999	138.58260959992185	138.58260959992185	138.58260959992185	138.58260959992185	138.58260959992185	138.58260959992185	right	4.3952575996518135	143.0098787001334	0.0089492001570761	145.0244189002551	145.0244189002551	3.0	8.131929099559784	153.1819748999551	153.1819748999551	153.1819748999551	153.1819748999551	153.1819748999551	153.1819748999551	1.0	10.717387699522078	163.9201341001317	n/a	n/a	n/a	n/a	n/a	n/a	n/a	n/a	n/a	n/a	n/a	n/a	n/a	n/a	n/a	n/a	n/a	n/a	n/a	n/a	n/a	n/a	n/a	n/a	n/a	n/a	n/a	n/a	utils/practice/ScrambledFW_16F_NE_O.BMP	n/a	n/a	n/a	n/a	n/a	n/a	utils/practice/ScrambledBW_16F_NE_O.BMP	n/a	n/a	n/a	n/a	n/a	n/a	n/a	n/a	n/a	n/a	n/a	n/a	n/a	n/a	n/a	n/a	n/a	n/a	n/a	n/a	n/a	n/a	n/a	n/a	n/a	n/a	n/a	n/a	42	1	2023-03-14_11h08.45.655	test_final	2022.2.4	60.06485817809829	n/a
NimStim_Database/Images/03F_NE_O.BMP	utils/practice/ScrambledFW_23M_NE_C.BMP	utils/practice/ScrambledBW_23M_NE_C.BMP	utils/practice/fake_prac7.jpg	utils/practice/real_prac6.jpg	n/a	0.0	1.0	1.0	8.0	n/a	n/a	n/a	n/a	n/a	n/a	n/a	n/a	n/a	n/a	n/a	n/a	n/a	n/a	n/a	n/a	n/a	n/a	n/a	n/a	n/a	n/a	n/a	n/a	n/a	n/a	n/a	n/a	n/a	n/a	n/a	n/a	n/a	n/a	n/a	n/a	n/a	n/a	n/a	n/a	n/a	n/a	n/a	n/a	n/a	n/a	n/a	n/a	n/a	165.93485489999875	168.23308160016313	2.2599999999999945	168.23308160016313	168.23308160016313	168.23308160016313	168.23308160016313	168.23308160016313	168.23308160016313	left	12.32219489943236	180.58505390025675	0.0094905002042651	182.5996028999798	182.5996028999798	4.0	2.271334999240935	184.8970618001185	184.8970618001185	184.8970618001185	184.8970618001185	184.8970618001185	184.8970618001185	4.0	1.9249443993903697	186.84492040006444	n/a	n/a	n/a	n/a	n/a	n/a	n/a	n/a	n/a	n/a	n/a	n/a	n/a	n/a	n/a	n/a	n/a	n/a	n/a	n/a	n/a	n/a	n/a	n/a	n/a	n/a	n/a	n/a	utils/practice/ScrambledFW_23M_NE_C.BMP	n/a	n/a	n/a	n/a	n/a	n/a	utils/practice/ScrambledBW_23M_NE_C.BMP	n/a	n/a	n/a	n/a	n/a	n/a	n/a	n/a	n/a	n/a	n/a	n/a	n/a	n/a	n/a	n/a	n/a	n/a	n/a	n/a	n/a	n/a	n/a	n/a	n/a	n/a	n/a	n/a	42	1	2023-03-14_11h08.45.655	test_final	2022.2.4	60.06485817809829	n/a
NimStim_Database/Images/25M_NE_C.BMP	utils/practice/ScrambledFW_01F_NE_O.BMP	utils/practice/ScrambledBW_01F_NE_O.BMP	utils/practice/real_prac1.jpg	utils/practice/real_prac10.jpg	n/a	0.0	2.0	2.0	0.0	n/a	n/a	n/a	n/a	n/a	n/a	n/a	n/a	n/a	n/a	n/a	n/a	n/a	n/a	n/a	n/a	n/a	n/a	n/a	n/a	n/a	n/a	n/a	n/a	n/a	n/a	n/a	n/a	n/a	n/a	n/a	n/a	n/a	n/a	n/a	n/a	n/a	n/a	n/a	n/a	n/a	n/a	n/a	n/a	n/a	n/a	n/a	n/a	n/a	188.8596699000336	191.1763709001243	2.2699999999999942	191.1763709001243	191.1763709001243	191.1763709001243	191.1763709001243	191.1763709001243	191.1763709001243	right	2.5999057996086776	193.8039370002225	0.0038159000687301	195.81872750027105	195.81872750027105	4.0	1.7961772996932268	197.6331008002162	197.6331008002162	197.6331008002162	197.6331008002162	197.6331008002162	197.6331008002162	4.0	1.0705810994841158	198.73175060004	n/a	n/a	n/a	n/a	n/a	n/a	n/a	n/a	n/a	n/a	n/a	n/a	n/a	n/a	n/a	n/a	n/a	n/a	n/a	n/a	n/a	n/a	n/a	n/a	n/a	n/a	n/a	n/a	utils/practice/ScrambledFW_01F_NE_O.BMP	n/a	n/a	n/a	n/a	n/a	n/a	utils/practice/ScrambledBW_01F_NE_O.BMP	n/a	n/a	n/a	n/a	n/a	n/a	n/a	n/a	n/a	n/a	n/a	n/a	n/a	n/a	n/a	n/a	n/a	n/a	n/a	n/a	n/a	n/a	n/a	n/a	n/a	n/a	n/a	n/a	42	1	2023-03-14_11h08.45.655	test_final	2022.2.4	60.06485817809829	n/a
NimStim_Database/Images/06F_NE_O.BMP	utils/practice/ScrambledFW_06F_NE_O.BMP	utils/practice/ScrambledBW_06F_NE_O.BMP	utils/practice/fake_prac2.jpg	utils/practice/real_prac15.jpg	n/a	0.0	3.0	3.0	2.0	n/a	n/a	n/a	n/a	n/a	n/a	n/a	n/a	n/a	n/a	n/a	n/a	n/a	n/a	n/a	n/a	n/a	n/a	n/a	n/a	n/a	n/a	n/a	n/a	n/a	n/a	n/a	n/a	n/a	n/a	n/a	n/a	n/a	n/a	n/a	n/a	n/a	n/a	n/a	n/a	n/a	n/a	n/a	n/a	n/a	n/a	n/a	n/a	n/a	200.746651600115	202.9299572999589	2.139999999999997	202.9299572999589	202.9299572999589	202.9299572999589	202.9299572999589	202.9299572999589	202.9299572999589	left	3.960119199473411	206.9228587001562	0.0039290999993681	208.9373413999565	208.9373413999565	4.0	1.694519799668342	210.6523678000085	210.6523678000085	210.6523678000085	210.6523678000085	210.6523678000085	210.6523678000085	4.0	1.030586099717766	211.7012465000153	n/a	n/a	n/a	n/a	n/a	n/a	n/a	n/a	n/a	n/a	n/a	n/a	n/a	n/a	n/a	n/a	n/a	n/a	n/a	n/a	n/a	n/a	n/a	n/a	n/a	n/a	n/a	n/a	utils/practice/ScrambledFW_06F_NE_O.BMP	n/a	n/a	n/a	n/a	n/a	n/a	utils/practice/ScrambledBW_06F_NE_O.BMP	n/a	n/a	n/a	n/a	n/a	n/a	n/a	n/a	n/a	n/a	n/a	n/a	n/a	n/a	n/a	n/a	n/a	n/a	n/a	n/a	n/a	n/a	n/a	n/a	n/a	n/a	n/a	n/a	42	1	2023-03-14_11h08.45.655	test_final	2022.2.4	60.06485817809829	n/a
NimStim_Database/Images/24M_NE_C.BMP	utils/practice/ScrambledFW_43M_NE_O.BMP	utils/practice/ScrambledBW_43M_NE_O.BMP	utils/practice/fake_prac13.jpg	utils/practice/real_prac12.jpg	n/a	0.0	4.0	4.0	15.0	n/a	n/a	n/a	n/a	n/a	n/a	n/a	n/a	n/a	n/a	n/a	n/a	n/a	n/a	n/a	n/a	n/a	n/a	n/a	n/a	n/a	n/a	n/a	n/a	n/a	n/a	n/a	n/a	n/a	n/a	n/a	n/a	n/a	n/a	n/a	n/a	n/a	n/a	n/a	n/a	n/a	n/a	n/a	n/a	n/a	n/a	n/a	n/a	n/a	213.71553600020707	216.16650120029223	2.4099999999999917	216.16650120029223	216.16650120029223	216.16650120029223	216.16650120029223	216.16650120029223	216.16650120029223	left	7.945231299847364	224.13718860037625	0.0059026996605098	226.1520859003067	226.1520859003067	4.0	1.4218909996561706	227.60031739994884	227.60031739994884	227.60031739994884	227.60031739994884	227.60031739994884	227.60031739994884	1.0	1.5425284998491406	229.16530120000243	n/a	n/a	n/a	n/a	n/a	n/a	n/a	n/a	n/a	n/a	n/a	n/a	n/a	n/a	n/a	n/a	n/a	n/a	n/a	n/a	n/a	n/a	n/a	n/a	n/a	n/a	n/a	n/a	utils/practice/ScrambledFW_43M_NE_O.BMP	n/a	n/a	n/a	n/a	n/a	n/a	utils/practice/ScrambledBW_43M_NE_O.BMP	n/a	n/a	n/a	n/a	n/a	n/a	n/a	n/a	n/a	n/a	n/a	n/a	n/a	n/a	n/a	n/a	n/a	n/a	n/a	n/a	n/a	n/a	n/a	n/a	n/a	n/a	n/a	n/a	42	1	2023-03-14_11h08.45.655	test_final	2022.2.4	60.06485817809829	n/a
NimStim_Database/Images/01F_NE_O.BMP	utils/practice/ScrambledFW_28M_NE_O.BMP	utils/practice/ScrambledBW_28M_NE_O.BMP	utils/practice/fake_prac14.jpg	utils/practice/fake_prac8.jpg	n/a	0.0	5.0	5.0	12.0	n/a	n/a	n/a	n/a	n/a	n/a	n/a	n/a	n/a	n/a	n/a	n/a	n/a	n/a	n/a	n/a	n/a	n/a	n/a	n/a	n/a	n/a	n/a	n/a	n/a	n/a	n/a	n/a	n/a	n/a	n/a	n/a	n/a	n/a	n/a	n/a	n/a	n/a	n/a	n/a	n/a	n/a	n/a	n/a	n/a	n/a	n/a	n/a	n/a	231.179657000117	233.43204490002245	2.199999999999996	233.43204490002245	233.43204490002245	233.43204490002245	233.43204490002245	233.43204490002245	233.43204490002245	left	6.709888299461454	240.16985579999164	0.0023015001788735	242.1842984003015	242.1842984003015	4.0	1.492839599493891	243.6995330001228	243.6995330001228	243.6995330001228	243.6995330001228	243.6995330001228	243.6995330001228	4.0	1.1152840997092426	244.83126380015165	n/a	n/a	n/a	n/a	n/a	n/a	n/a	n/a	n/a	n/a	n/a	n/a	n/a	n/a	n/a	n/a	n/a	n/a	n/a	n/a	n/a	n/a	n/a	n/a	n/a	n/a	n/a	n/a	utils/practice/ScrambledFW_28M_NE_O.BMP	n/a	n/a	n/a	n/a	n/a	n/a	utils/practice/ScrambledBW_28M_NE_O.BMP	n/a	n/a	n/a	n/a	n/a	n/a	n/a	n/a	n/a	n/a	n/a	n/a	n/a	n/a	n/a	n/a	n/a	n/a	n/a	n/a	n/a	n/a	n/a	n/a	n/a	n/a	n/a	n/a	42	1	2023-03-14_11h08.45.655	test_final	2022.2.4	60.06485817809829	n/a
NimStim_Database/Images/11F_NE_C.BMP	utils/practice/ScrambledFW_37M_NE_C.BMP	utils/practice/ScrambledBW_37M_NE_C.BMP	utils/practice/real_prac16.jpg	utils/practice/fake_prac1.jpg	n/a	0.0	6.0	6.0	14.0	n/a	n/a	n/a	n/a	n/a	n/a	n/a	n/a	n/a	n/a	n/a	n/a	n/a	n/a	n/a	n/a	n/a	n/a	n/a	n/a	n/a	n/a	n/a	n/a	n/a	n/a	n/a	n/a	n/a	n/a	n/a	n/a	n/a	n/a	n/a	n/a	n/a	n/a	n/a	n/a	n/a	n/a	n/a	n/a	n/a	n/a	n/a	n/a	n/a	246.84579659998417	248.94287630030885	2.0599999999999987	248.94287630030885	248.94287630030885	248.94287630030885	248.94287630030885	248.94287630030885	248.94287630030885	right	1.9338783998973668	250.907826800365	0.0022502997890114	252.92226250004023	252.92226250004023	4.0	0.5626244996674359	253.5051017003134	253.5051017003134	253.5051017003134	253.5051017003134	253.5051017003134	253.5051017003134	4.0	0.7103805993683636	254.23781760036945	n/a	n/a	n/a	n/a	n/a	n/a	n/a	n/a	n/a	n/a	n/a	n/a	n/a	n/a	n/a	n/a	n/a	n/a	n/a	n/a	n/a	n/a	n/a	n/a	n/a	n/a	n/a	n/a	utils/practice/ScrambledFW_37M_NE_C.BMP	n/a	n/a	n/a	n/a	n/a	n/a	utils/practice/ScrambledBW_37M_NE_C.BMP	n/a	n/a	n/a	n/a	n/a	n/a	n/a	n/a	n/a	n/a	n/a	n/a	n/a	n/a	n/a	n/a	n/a	n/a	n/a	n/a	n/a	n/a	n/a	n/a	n/a	n/a	n/a	n/a	42	1	2023-03-14_11h08.45.655	test_final	2022.2.4	60.06485817809829	n/a
NimStim_Database/Images/28M_NE_O.BMP	utils/practice/ScrambledFW_12F_NE_C.BMP	utils/practice/ScrambledBW_12F_NE_C.BMP	utils/practice/fake_prac3.jpg	utils/practice/fake_prac10.jpg	n/a	0.0	7.0	7.0	5.0	n/a	n/a	n/a	n/a	n/a	n/a	n/a	n/a	n/a	n/a	n/a	n/a	n/a	n/a	n/a	n/a	n/a	n/a	n/a	n/a	n/a	n/a	n/a	n/a	n/a	n/a	n/a	n/a	n/a	n/a	n/a	n/a	n/a	n/a	n/a	n/a	n/a	n/a	n/a	n/a	n/a	n/a	n/a	n/a	n/a	n/a	n/a	n/a	n/a	256.25218670023605	258.44741380028427	2.149999999999997	258.44741380028427	258.44741380028427	258.44741380028427	258.44741380028427	258.44741380028427	258.44741380028427	left	1.8817073996178808	260.3477447000332	0.0041642002761363	262.3619272001088	262.3619272001088	4.0	0.3793123997747898	262.7617613002658	262.7617613002658	262.7617613002658	262.7617613002658	262.7617613002658	262.7617613002658	4.0	0.4283843995071947	263.21113430010155	n/a	n/a	n/a	n/a	n/a	n/a	n/a	n/a	n/a	n/a	n/a	n/a	n/a	n/a	n/a	n/a	n/a	n/a	n/a	n/a	n/a	n/a	n/a	n/a	n/a	n/a	n/a	n/a	utils/practice/ScrambledFW_12F_NE_C.BMP	n/a	n/a	n/a	n/a	n/a	n/a	utils/practice/ScrambledBW_12F_NE_C.BMP	n/a	n/a	n/a	n/a	n/a	n/a	n/a	n/a	n/a	n/a	n/a	n/a	n/a	n/a	n/a	n/a	n/a	n/a	n/a	n/a	n/a	n/a	n/a	n/a	n/a	n/a	n/a	n/a	42	1	2023-03-14_11h08.45.655	test_final	2022.2.4	60.06485817809829	n/a
NimStim_Database/Images/23M_NE_C.BMP	utils/practice/ScrambledFW_28M_NE_C.BMP	utils/practice/ScrambledBW_28M_NE_C.BMP	utils/practice/real_prac8.jpg	utils/practice/real_prac3.jpg	n/a	0.0	8.0	8.0	11.0	n/a	n/a	n/a	n/a	n/a	n/a	n/a	n/a	n/a	n/a	n/a	n/a	n/a	n/a	n/a	n/a	n/a	n/a	n/a	n/a	n/a	n/a	n/a	n/a	n/a	n/a	n/a	n/a	n/a	n/a	n/a	n/a	n/a	n/a	n/a	n/a	n/a	n/a	n/a	n/a	n/a	n/a	n/a	n/a	n/a	n/a	n/a	n/a	n/a	265.2256728000939	267.7270917003043	2.45999999999999	267.7270917003043	267.7270917003043	267.7270917003043	267.7270917003043	267.7270917003043	267.7270917003043	right	1.3370294994674623	269.08785230014473	0.0027328003197908	271.1024670000188	271.1024670000188	4.0	0.2440467998385429	271.36893100012094	271.36893100012094	271.36893100012094	271.36893100012094	271.36893100012094	271.36893100012094	4.0	0.217160599771887	271.6185501003638	n/a	n/a	n/a	n/a	n/a	n/a	n/a	n/a	n/a	n/a	n/a	n/a	n/a	n/a	n/a	n/a	n/a	n/a	n/a	n/a	n/a	n/a	n/a	n/a	n/a	n/a	n/a	n/a	utils/practice/ScrambledFW_28M_NE_C.BMP	n/a	n/a	n/a	n/a	n/a	n/a	utils/practice/ScrambledBW_28M_NE_C.BMP	n/a	n/a	n/a	n/a	n/a	n/a	n/a	n/a	n/a	n/a	n/a	n/a	n/a	n/a	n/a	n/a	n/a	n/a	n/a	n/a	n/a	n/a	n/a	n/a	n/a	n/a	n/a	n/a	42	1	2023-03-14_11h08.45.655	test_final	2022.2.4	60.06485817809829	n/a
NimStim_Database/Images/12F_NE_C.BMP	utils/practice/ScrambledFW_03F_NE_O.BMP	utils/practice/ScrambledBW_03F_NE_O.BMP	utils/practice/real_prac9.jpg	utils/practice/real_prac13.jpg	n/a	0.0	9.0	9.0	1.0	n/a	n/a	n/a	n/a	n/a	n/a	n/a	n/a	n/a	n/a	n/a	n/a	n/a	n/a	n/a	n/a	n/a	n/a	n/a	n/a	n/a	n/a	n/a	n/a	n/a	n/a	n/a	n/a	n/a	n/a	n/a	n/a	n/a	n/a	n/a	n/a	n/a	n/a	n/a	n/a	n/a	n/a	n/a	n/a	n/a	n/a	n/a	n/a	n/a	273.6330764000304	275.7424743003212	2.0799999999999983	275.7424743003212	275.7424743003212	275.7424743003212	275.7424743003212	275.7424743003212	275.7424743003212	right	0.8136749998666346	276.5797007000074	0.0022320998832583	278.5942593002692	278.5942593002692	4.0	0.1173921995796263	278.7441712003201	278.7441712003201	278.7441712003201	278.7441712003201	278.7441712003201	278.7441712003201	1.0	0.849369999486953	279.6097722002305	n/a	n/a	n/a	n/a	n/a	n/a	n/a	n/a	n/a	n/a	n/a	n/a	n/a	n/a	n/a	n/a	n/a	n/a	n/a	n/a	n/a	n/a	n/a	n/a	n/a	n/a	n/a	n/a	utils/practice/ScrambledFW_03F_NE_O.BMP	n/a	n/a	n/a	n/a	n/a	n/a	utils/practice/ScrambledBW_03F_NE_O.BMP	n/a	n/a	n/a	n/a	n/a	n/a	n/a	n/a	n/a	n/a	n/a	n/a	n/a	n/a	n/a	n/a	n/a	n/a	n/a	n/a	n/a	n/a	n/a	n/a	n/a	n/a	n/a	n/a	42	1	2023-03-14_11h08.45.655	test_final	2022.2.4	60.06485817809829	n/a
NimStim_Database/Images/37M_NE_C.BMP	utils/practice/ScrambledFW_24M_NE_C.BMP	utils/practice/ScrambledBW_24M_NE_C.BMP	utils/practice/real_prac7.jpg	utils/practice/real_prac14.jpg	n/a	0.0	10.0	10.0	9.0	n/a	n/a	n/a	n/a	n/a	n/a	n/a	n/a	n/a	n/a	n/a	n/a	n/a	n/a	n/a	n/a	n/a	n/a	n/a	n/a	n/a	n/a	n/a	n/a	n/a	n/a	n/a	n/a	n/a	n/a	n/a	n/a	n/a	n/a	n/a	n/a	n/a	n/a	n/a	n/a	n/a	n/a	n/a	n/a	n/a	n/a	n/a	n/a	n/a	281.6243430003524	283.6739294999279	2.0	283.6739294999279	283.6739294999279	283.6739294999279	283.6739294999279	283.6739294999279	283.6739294999279	right	1.1810355996713042	284.8873699000105	0.0022717998363077	286.9016152000986	286.9016152000986	4.0	0.4175455998629331	287.35106820007786	287.35106820007786	287.35106820007786	287.35106820007786	287.35106820007786	287.35106820007786	4.0	0.1843897998332977	287.56750380015	n/a	n/a	n/a	n/a	n/a	n/a	n/a	n/a	n/a	n/a	n/a	n/a	n/a	n/a	n/a	n/a	n/a	n/a	n/a	n/a	n/a	n/a	n/a	n/a	n/a	n/a	n/a	n/a	utils/practice/ScrambledFW_24M_NE_C.BMP	n/a	n/a	n/a	n/a	n/a	n/a	utils/practice/ScrambledBW_24M_NE_C.BMP	n/a	n/a	n/a	n/a	n/a	n/a	n/a	n/a	n/a	n/a	n/a	n/a	n/a	n/a	n/a	n/a	n/a	n/a	n/a	n/a	n/a	n/a	n/a	n/a	n/a	n/a	n/a	n/a	42	1	2023-03-14_11h08.45.655	test_final	2022.2.4	60.06485817809829	n/a
NimStim_Database/Images/43M_NE_O.BMP	utils/practice/ScrambledFW_11F_NE_C.BMP	utils/practice/ScrambledBW_11F_NE_C.BMP	utils/practice/real_prac11.jpg	utils/practice/fake_prac11.jpg	n/a	0.0	11.0	11.0	4.0	n/a	n/a	n/a	n/a	n/a	n/a	n/a	n/a	n/a	n/a	n/a	n/a	n/a	n/a	n/a	n/a	n/a	n/a	n/a	n/a	n/a	n/a	n/a	n/a	n/a	n/a	n/a	n/a	n/a	n/a	n/a	n/a	n/a	n/a	n/a	n/a	n/a	n/a	n/a	n/a	n/a	n/a	n/a	n/a	n/a	n/a	n/a	n/a	n/a	289.58220040006563	292.0609635002911	2.4399999999999906	292.0609635002911	292.0609635002911	292.0609635002911	292.0609635002911	292.0609635002911	292.0609635002911	right	0.9812399996444584	293.0616211001761	0.0024496996775269	295.0761898001656	295.0761898001656	4.0	0.4465560996904969	295.5422352999449	295.5422352999449	295.5422352999449	295.5422352999449	295.5422352999449	295.5422352999449	1.0	0.1631200998090207	295.725267900154	n/a	n/a	n/a	n/a	n/a	n/a	n/a	n/a	n/a	n/a	n/a	n/a	n/a	n/a	n/a	n/a	n/a	n/a	n/a	n/a	n/a	n/a	n/a	n/a	n/a	n/a	n/a	n/a	utils/practice/ScrambledFW_11F_NE_C.BMP	n/a	n/a	n/a	n/a	n/a	n/a	utils/practice/ScrambledBW_11F_NE_C.BMP	n/a	n/a	n/a	n/a	n/a	n/a	n/a	n/a	n/a	n/a	n/a	n/a	n/a	n/a	n/a	n/a	n/a	n/a	n/a	n/a	n/a	n/a	n/a	n/a	n/a	n/a	n/a	n/a	42	1	2023-03-14_11h08.45.655	test_final	2022.2.4	60.06485817809829	n/a
NimStim_Database/Images/15F_NE_O.BMP	utils/practice/ScrambledFW_08F_NE_O.BMP	utils/practice/ScrambledBW_08F_NE_O.BMP	utils/practice/real_prac4.jpg	utils/practice/fake_prac12.jpg	n/a	0.0	12.0	12.0	3.0	n/a	n/a	n/a	n/a	n/a	n/a	n/a	n/a	n/a	n/a	n/a	n/a	n/a	n/a	n/a	n/a	n/a	n/a	n/a	n/a	n/a	n/a	n/a	n/a	n/a	n/a	n/a	n/a	n/a	n/a	n/a	n/a	n/a	n/a	n/a	n/a	n/a	n/a	n/a	n/a	n/a	n/a	n/a	n/a	n/a	n/a	n/a	n/a	n/a	297.7400195002556	299.98997480003163	2.2099999999999955	299.98997480003163	299.98997480003163	299.98997480003163	299.98997480003163	299.98997480003163	299.98997480003163	right	1.031192499678582	301.05302989995107	0.0021954998373985	303.0671228002757	303.0671228002757	4.0	0.6043683998286724	303.6999795003794	303.6999795003794	303.6999795003794	303.6999795003794	303.6999795003794	303.6999795003794	1.0	0.2305029993876814	303.94972679996863	n/a	n/a	n/a	n/a	n/a	n/a	n/a	n/a	n/a	n/a	n/a	n/a	n/a	n/a	n/a	n/a	n/a	n/a	n/a	n/a	n/a	n/a	n/a	n/a	n/a	n/a	n/a	n/a	utils/practice/ScrambledFW_08F_NE_O.BMP	n/a	n/a	n/a	n/a	n/a	n/a	utils/practice/ScrambledBW_08F_NE_O.BMP	n/a	n/a	n/a	n/a	n/a	n/a	n/a	n/a	n/a	n/a	n/a	n/a	n/a	n/a	n/a	n/a	n/a	n/a	n/a	n/a	n/a	n/a	n/a	n/a	n/a	n/a	n/a	n/a	42	1	2023-03-14_11h08.45.655	test_final	2022.2.4	60.06485817809829	n/a
NimStim_Database/Images/33M_NE_C.BMP	utils/practice/ScrambledFW_25M_NE_C.BMP	utils/practice/ScrambledBW_25M_NE_C.BMP	utils/practice/fake_prac4.jpg	utils/practice/fake_prac5.jpg	n/a	0.0	13.0	13.0	10.0	n/a	n/a	n/a	n/a	n/a	n/a	n/a	n/a	n/a	n/a	n/a	n/a	n/a	n/a	n/a	n/a	n/a	n/a	n/a	n/a	n/a	n/a	n/a	n/a	n/a	n/a	n/a	n/a	n/a	n/a	n/a	n/a	n/a	n/a	n/a	n/a	n/a	n/a	n/a	n/a	n/a	n/a	n/a	n/a	n/a	n/a	n/a	n/a	n/a	305.9641121001914	308.06661810027435	2.049999999999999	308.06661810027435	308.06661810027435	308.06661810027435	308.06661810027435	308.06661810027435	308.06661810027435	left	2.3759444993920624	310.4591995002702	0.00238629989326	312.47340640006587	312.47340640006587	4.0	0.5014450997114182	313.0064827003516	313.0064827003516	313.0064827003516	313.0064827003516	313.0064827003516	313.0064827003516	4.0	0.6636720998212695	313.6890116999857	n/a	n/a	n/a	n/a	n/a	n/a	n/a	n/a	n/a	n/a	n/a	n/a	n/a	n/a	n/a	n/a	n/a	n/a	n/a	n/a	n/a	n/a	n/a	n/a	n/a	n/a	n/a	n/a	utils/practice/ScrambledFW_25M_NE_C.BMP	n/a	n/a	n/a	n/a	n/a	n/a	utils/practice/ScrambledBW_25M_NE_C.BMP	n/a	n/a	n/a	n/a	n/a	n/a	n/a	n/a	n/a	n/a	n/a	n/a	n/a	n/a	n/a	n/a	n/a	n/a	n/a	n/a	n/a	n/a	n/a	n/a	n/a	n/a	n/a	n/a	42	1	2023-03-14_11h08.45.655	test_final	2022.2.4	60.06485817809829	n/a
NimStim_Database/Images/08F_NE_O.BMP	utils/practice/ScrambledFW_15F_NE_O.BMP	utils/practice/ScrambledBW_15F_NE_O.BMP	utils/practice/fake_prac9.jpg	utils/practice/real_prac5.jpg	n/a	0.0	14.0	14.0	6.0	n/a	n/a	n/a	n/a	n/a	n/a	n/a	n/a	n/a	n/a	n/a	n/a	n/a	n/a	n/a	n/a	n/a	n/a	n/a	n/a	n/a	n/a	n/a	n/a	n/a	n/a	n/a	n/a	n/a	n/a	n/a	n/a	n/a	n/a	n/a	n/a	n/a	n/a	n/a	n/a	n/a	n/a	n/a	n/a	n/a	n/a	n/a	n/a	n/a	315.703381200321	318.11390630016103	2.369999999999992	318.11390630016103	318.11390630016103	318.11390630016103	318.11390630016103	318.11390630016103	318.11390630016103	left	4.346998399589211	322.4794479003176	0.0026431996375322	324.49387510027736	324.49387510027736	4.0	0.7471218998543918	325.25966039998457	325.25966039998457	325.25966039998457	325.25966039998457	325.25966039998457	325.25966039998457	4.0	0.7454939996823668	326.0254506999627	n/a	n/a	n/a	n/a	n/a	n/a	n/a	n/a	n/a	n/a	n/a	n/a	n/a	n/a	n/a	n/a	n/a	n/a	n/a	n/a	n/a	n/a	n/a	n/a	n/a	n/a	n/a	n/a	utils/practice/ScrambledFW_15F_NE_O.BMP	n/a	n/a	n/a	n/a	n/a	n/a	utils/practice/ScrambledBW_15F_NE_O.BMP	n/a	n/a	n/a	n/a	n/a	n/a	n/a	n/a	n/a	n/a	n/a	n/a	n/a	n/a	n/a	n/a	n/a	n/a	n/a	n/a	n/a	n/a	n/a	n/a	n/a	n/a	n/a	n/a	42	1	2023-03-14_11h08.45.655	test_final	2022.2.4	60.06485817809829	n/a
NimStim_Database/Images/28M_NE_C.BMP	utils/practice/ScrambledFW_33M_NE_C.BMP	utils/practice/ScrambledBW_33M_NE_C.BMP	utils/practice/real_prac2.jpg	utils/practice/fake_prac16.jpg	n/a	0.0	15.0	15.0	13.0	n/a	n/a	n/a	n/a	n/a	n/a	n/a	n/a	n/a	n/a	n/a	n/a	n/a	n/a	n/a	n/a	n/a	n/a	n/a	n/a	n/a	n/a	n/a	n/a	n/a	n/a	n/a	n/a	n/a	n/a	n/a	n/a	n/a	n/a	n/a	n/a	n/a	n/a	n/a	n/a	n/a	n/a	n/a	n/a	n/a	n/a	n/a	n/a	n/a	328.0399490003474	330.4887026003562	2.3999999999999915	330.4887026003562	330.4887026003562	330.4887026003562	330.4887026003562	330.4887026003562	330.4887026003562	right	1.0554865994490683	331.5694185001776	0.0024311998859047	333.5839245002717	333.5839245002717	4.0	0.5163955995813012	334.13320589996874	334.13320589996874	334.13320589996874	334.13320589996874	334.13320589996874	334.13320589996874	1.0	0.3061826997436583	334.46598320035264	n/a	n/a	n/a	n/a	n/a	n/a	n/a	n/a	n/a	n/a	n/a	n/a	n/a	n/a	n/a	n/a	n/a	n/a	n/a	n/a	n/a	n/a	n/a	n/a	n/a	n/a	n/a	n/a	utils/practice/ScrambledFW_33M_NE_C.BMP	n/a	n/a	n/a	n/a	n/a	n/a	utils/practice/ScrambledBW_33M_NE_C.BMP	n/a	n/a	n/a	n/a	n/a	n/a	n/a	n/a	n/a	n/a	n/a	n/a	n/a	n/a	n/a	n/a	n/a	n/a	n/a	n/a	n/a	n/a	n/a	n/a	n/a	n/a	n/a	n/a	42	1	2023-03-14_11h08.45.655	test_final	2022.2.4	60.06485817809829	n/a
n/a	n/a	n/a	n/a	n/a	n/a	n/a	n/a	n/a	n/a	n/a	n/a	n/a	n/a	n/a	n/a	n/a	n/a	n/a	n/a	n/a	n/a	n/a	n/a	n/a	n/a	n/a	n/a	n/a	n/a	n/a	n/a	n/a	n/a	n/a	n/a	n/a	n/a	n/a	n/a	n/a	n/a	n/a	n/a	n/a	n/a	n/a	n/a	n/a	n/a	n/a	n/a	n/a	n/a	n/a	n/a	n/a	n/a	n/a	n/a	n/a	n/a	n/a	n/a	n/a	n/a	n/a	n/a	n/a	n/a	n/a	n/a	n/a	n/a	n/a	n/a	n/a	n/a	n/a	n/a	n/a	n/a	n/a	n/a	n/a	336.4803510000929	336.4803510000929	space	70.6158745996654	n/a	n/a	n/a	n/a	n/a	n/a	n/a	n/a	n/a	n/a	n/a	n/a	n/a	n/a	n/a	n/a	n/a	n/a	n/a	n/a	n/a	n/a	n/a	n/a	n/a	n/a	n/a	n/a	n/a	n/a	n/a	n/a	n/a	n/a	n/a	n/a	n/a	n/a	n/a	n/a	n/a	n/a	n/a	n/a	n/a	n/a	n/a	n/a	n/a	n/a	n/a	n/a	n/a	n/a	n/a	n/a	n/a	n/a	n/a	n/a	42	1	2023-03-14_11h08.45.655	test_final	2022.2.4	60.06485817809829	n/a
NimStim_Database/Images/23M_NE_C.BMP	utils/practice/ScrambledFW_28M_NE_C.BMP	utils/practice/ScrambledBW_28M_NE_C.BMP	utils/practice/real_prac8.jpg	utils/practice/real_prac3.jpg	n/a	n/a	n/a	n/a	n/a	0.0	0.0	0.0	11.0	n/a	n/a	n/a	n/a	0.0	0.0	0.0	0.0	n/a	n/a	n/a	n/a	n/a	n/a	n/a	n/a	n/a	n/a	n/a	n/a	n/a	n/a	n/a	n/a	n/a	n/a	n/a	n/a	n/a	n/a	n/a	n/a	n/a	n/a	n/a	n/a	n/a	n/a	n/a	n/a	n/a	n/a	n/a	n/a	n/a	407.1196942999959	409.30862190015614	2.1699999999999964	n/a	n/a	n/a	n/a	n/a	n/a	n/a	n/a	n/a	n/a	n/a	n/a	n/a	n/a	n/a	n/a	n/a	n/a	n/a	n/a	n/a	n/a	n/a	n/a	n/a	n/a	n/a	409.30862190015614	409.4416435002349	409.4416435002349	409.47132220026106	409.47132220026106	409.5494515001774	409.5494515001774	409.5494515001774	409.5494515001774	409.5494515001774	409.5494515001774	409.5494515001774	None	410.2788671003655	410.2788671003655	space	2.4046408995054662	n/a	n/a	n/a	n/a	n/a	n/a	n/a	utils/practice/ScrambledFW_28M_NE_C.BMP	n/a	n/a	n/a	n/a	n/a	n/a	utils/practice/ScrambledBW_28M_NE_C.BMP	n/a	n/a	n/a	n/a	n/a	n/a	n/a	n/a	n/a	n/a	n/a	n/a	n/a	n/a	n/a	n/a	n/a	n/a	n/a	n/a	n/a	n/a	n/a	n/a	n/a	n/a	n/a	n/a	42	1	2023-03-14_11h08.45.655	test_final	2022.2.4	60.06485817809829	n/a
NimStim_Database/Images/23M_NE_C.BMP	utils/practice/ScrambledFW_28M_NE_C.BMP	utils/practice/ScrambledBW_28M_NE_C.BMP	utils/practice/real_prac8.jpg	utils/practice/real_prac3.jpg	n/a	n/a	n/a	n/a	n/a	0.0	0.0	0.0	11.0	n/a	n/a	n/a	n/a	n/a	n/a	n/a	n/a	n/a	n/a	n/a	n/a	n/a	n/a	n/a	n/a	n/a	n/a	n/a	n/a	n/a	n/a	n/a	n/a	n/a	n/a	n/a	n/a	n/a	n/a	n/a	n/a	n/a	n/a	n/a	n/a	n/a	n/a	n/a	n/a	n/a	n/a	n/a	n/a	n/a	n/a	n/a	n/a	n/a	n/a	n/a	n/a	n/a	n/a	n/a	n/a	n/a	n/a	n/a	n/a	n/a	n/a	n/a	n/a	n/a	n/a	n/a	n/a	n/a	n/a	412.71333410032094	n/a	n/a	n/a	n/a	n/a	n/a	n/a	n/a	n/a	n/a	n/a	n/a	n/a	n/a	n/a	n/a	n/a	n/a	n/a	n/a	n/a	n/a	n/a	n/a	n/a	n/a	n/a	n/a	utils/practice/ScrambledFW_28M_NE_C.BMP	n/a	n/a	n/a	n/a	n/a	n/a	utils/practice/ScrambledBW_28M_NE_C.BMP	n/a	n/a	n/a	n/a	n/a	n/a	n/a	n/a	n/a	n/a	n/a	n/a	n/a	n/a	n/a	n/a	n/a	n/a	n/a	n/a	n/a	n/a	n/a	n/a	n/a	n/a	n/a	n/a	42	1	2023-03-14_11h08.45.655	test_final	2022.2.4	60.06485817809829	n/a
NimStim_Database/Images/08F_NE_O.BMP	utils/practice/ScrambledFW_15F_NE_O.BMP	utils/practice/ScrambledBW_15F_NE_O.BMP	utils/practice/fake_prac9.jpg	utils/practice/real_prac5.jpg	n/a	n/a	n/a	n/a	n/a	0.0	1.0	1.0	6.0	0.0	0.0	0.0	0.0	n/a	n/a	n/a	n/a	n/a	n/a	n/a	n/a	n/a	n/a	n/a	n/a	n/a	n/a	n/a	n/a	n/a	n/a	n/a	n/a	n/a	n/a	n/a	n/a	n/a	n/a	n/a	n/a	n/a	n/a	n/a	n/a	n/a	n/a	n/a	n/a	n/a	n/a	n/a	n/a	n/a	414.7276930999942	416.9607673003338	2.2199999999999958	n/a	n/a	n/a	n/a	n/a	n/a	n/a	n/a	n/a	n/a	n/a	n/a	n/a	n/a	n/a	n/a	n/a	n/a	n/a	n/a	n/a	n/a	n/a	n/a	n/a	n/a	n/a	416.9607673003338	417.06061620032415	417.06061620032415	417.09294510027394	417.09294510027394	417.1499727000482	417.1499727000482	417.1499727000482	417.1499727000482	417.1499727000482	417.1499727000482	417.1499727000482	left	n/a	n/a	n/a	n/a	0.2803823994472623	417.4581092000008	n/a	n/a	n/a	n/a	n/a	utils/practice/ScrambledFW_15F_NE_O.BMP	n/a	n/a	n/a	n/a	n/a	n/a	utils/practice/ScrambledBW_15F_NE_O.BMP	n/a	n/a	n/a	n/a	n/a	n/a	n/a	n/a	n/a	n/a	n/a	n/a	n/a	n/a	n/a	n/a	n/a	n/a	n/a	n/a	n/a	n/a	n/a	n/a	n/a	n/a	n/a	n/a	42	1	2023-03-14_11h08.45.655	test_final	2022.2.4	60.06485817809829	n/a
NimStim_Database/Images/08F_NE_O.BMP	utils/practice/ScrambledFW_15F_NE_O.BMP	utils/practice/ScrambledBW_15F_NE_O.BMP	utils/practice/fake_prac9.jpg	utils/practice/real_prac5.jpg	n/a	n/a	n/a	n/a	n/a	0.0	1.0	1.0	6.0	n/a	n/a	n/a	n/a	n/a	n/a	n/a	n/a	0.0	0.0	0.0	0.0	n/a	n/a	n/a	n/a	n/a	n/a	n/a	n/a	n/a	n/a	n/a	n/a	n/a	n/a	n/a	n/a	n/a	n/a	n/a	n/a	n/a	n/a	n/a	n/a	n/a	n/a	n/a	n/a	n/a	n/a	n/a	n/a	n/a	n/a	n/a	n/a	n/a	n/a	n/a	n/a	n/a	n/a	n/a	n/a	n/a	n/a	418.47364840004593	418.47364840004593	4.0	1.5358814997598529	420.0385666000657	420.0385666000657	420.0385666000657	420.0385666000657	420.0385666000657	420.0385666000657	4.0	1.053874499630183	n/a	n/a	n/a	n/a	n/a	n/a	n/a	n/a	n/a	n/a	n/a	n/a	n/a	n/a	n/a	n/a	n/a	n/a	n/a	n/a	n/a	n/a	n/a	n/a	n/a	n/a	n/a	n/a	n/a	utils/practice/ScrambledFW_15F_NE_O.BMP	n/a	n/a	n/a	n/a	n/a	n/a	utils/practice/ScrambledBW_15F_NE_O.BMP	n/a	n/a	n/a	n/a	n/a	n/a	n/a	n/a	n/a	n/a	n/a	n/a	n/a	n/a	n/a	n/a	n/a	n/a	n/a	n/a	n/a	n/a	n/a	n/a	n/a	n/a	n/a	n/a	42	1	2023-03-14_11h08.45.655	test_final	2022.2.4	60.06485817809829	n/a
NimStim_Database/Images/08F_NE_O.BMP	utils/practice/ScrambledFW_15F_NE_O.BMP	utils/practice/ScrambledBW_15F_NE_O.BMP	utils/practice/fake_prac9.jpg	utils/practice/real_prac5.jpg	n/a	n/a	n/a	n/a	n/a	0.0	1.0	1.0	6.0	n/a	n/a	n/a	n/a	n/a	n/a	n/a	n/a	n/a	n/a	n/a	n/a	n/a	n/a	n/a	n/a	n/a	n/a	n/a	n/a	n/a	n/a	n/a	n/a	n/a	n/a	n/a	n/a	n/a	n/a	n/a	n/a	n/a	n/a	n/a	n/a	n/a	n/a	n/a	n/a	n/a	n/a	n/a	n/a	n/a	n/a	n/a	n/a	n/a	n/a	n/a	n/a	n/a	n/a	n/a	n/a	n/a	n/a	n/a	n/a	n/a	n/a	n/a	n/a	n/a	n/a	n/a	n/a	n/a	n/a	421.1207183999941	n/a	n/a	n/a	n/a	n/a	n/a	n/a	n/a	n/a	n/a	n/a	n/a	n/a	n/a	n/a	n/a	n/a	n/a	n/a	n/a	n/a	n/a	n/a	n/a	n/a	n/a	n/a	n/a	utils/practice/ScrambledFW_15F_NE_O.BMP	n/a	n/a	n/a	n/a	n/a	n/a	utils/practice/ScrambledBW_15F_NE_O.BMP	n/a	n/a	n/a	n/a	n/a	n/a	n/a	n/a	n/a	n/a	n/a	n/a	n/a	n/a	n/a	n/a	n/a	n/a	n/a	n/a	n/a	n/a	n/a	n/a	n/a	n/a	n/a	n/a	42	1	2023-03-14_11h08.45.655	test_final	2022.2.4	60.06485817809829	n/a
NimStim_Database/Images/01F_NE_O.BMP	utils/practice/ScrambledFW_28M_NE_O.BMP	utils/practice/ScrambledBW_28M_NE_O.BMP	utils/practice/fake_prac14.jpg	utils/practice/fake_prac8.jpg	n/a	n/a	n/a	n/a	n/a	0.0	2.0	2.0	12.0	0.0	0.0	0.0	0.0	n/a	n/a	n/a	n/a	n/a	n/a	n/a	n/a	n/a	n/a	n/a	n/a	n/a	n/a	n/a	n/a	n/a	n/a	n/a	n/a	n/a	n/a	n/a	n/a	n/a	n/a	n/a	n/a	n/a	n/a	n/a	n/a	n/a	n/a	n/a	n/a	n/a	n/a	n/a	n/a	n/a	423.1351833003573	425.2673623999581	2.119999999999997	n/a	n/a	n/a	n/a	n/a	n/a	n/a	n/a	n/a	n/a	n/a	n/a	n/a	n/a	n/a	n/a	n/a	n/a	n/a	n/a	n/a	n/a	n/a	n/a	n/a	n/a	n/a	425.2673623999581	425.3990742000751	425.3990742000751	425.4327782001346	425.4327782001346	425.50115670030937	425.50115670030937	425.50115670030937	425.50115670030937	425.50115670030937	425.50115670030937	425.50115670030937	right	n/a	n/a	n/a	n/a	0.5400186995975673	426.065201499965	427.0644129002467	n/a	n/a	n/a	n/a	utils/practice/ScrambledFW_28M_NE_O.BMP	n/a	n/a	n/a	n/a	n/a	n/a	utils/practice/ScrambledBW_28M_NE_O.BMP	n/a	n/a	n/a	n/a	n/a	n/a	n/a	n/a	n/a	n/a	n/a	n/a	n/a	n/a	n/a	n/a	n/a	n/a	n/a	n/a	n/a	n/a	n/a	n/a	n/a	n/a	n/a	n/a	42	1	2023-03-14_11h08.45.655	test_final	2022.2.4	60.06485817809829	n/a
NimStim_Database/Images/01F_NE_O.BMP	utils/practice/ScrambledFW_28M_NE_O.BMP	utils/practice/ScrambledBW_28M_NE_O.BMP	utils/practice/fake_prac14.jpg	utils/practice/fake_prac8.jpg	n/a	n/a	n/a	n/a	n/a	0.0	2.0	2.0	12.0	n/a	n/a	n/a	n/a	n/a	n/a	n/a	n/a	0.0	0.0	0.0	0.0	n/a	n/a	n/a	n/a	n/a	n/a	n/a	n/a	n/a	n/a	n/a	n/a	n/a	n/a	n/a	n/a	n/a	n/a	n/a	n/a	n/a	n/a	n/a	n/a	n/a	n/a	n/a	n/a	n/a	n/a	n/a	n/a	n/a	n/a	n/a	n/a	n/a	n/a	n/a	n/a	n/a	n/a	n/a	n/a	n/a	n/a	427.0644129002467	427.0644129002467	4.0	0.6688112998381257	427.7635016003624	427.7635016003624	427.7635016003624	427.7635016003624	427.7635016003624	427.7635016003624	4.0	0.262572200037539	n/a	n/a	n/a	n/a	n/a	n/a	n/a	n/a	n/a	n/a	n/a	n/a	n/a	n/a	n/a	n/a	n/a	n/a	n/a	n/a	n/a	n/a	n/a	n/a	n/a	n/a	n/a	n/a	n/a	utils/practice/ScrambledFW_28M_NE_O.BMP	n/a	n/a	n/a	n/a	n/a	n/a	utils/practice/ScrambledBW_28M_NE_O.BMP	n/a	n/a	n/a	n/a	n/a	n/a	n/a	n/a	n/a	n/a	n/a	n/a	n/a	n/a	n/a	n/a	n/a	n/a	n/a	n/a	n/a	n/a	n/a	n/a	n/a	n/a	n/a	n/a	42	1	2023-03-14_11h08.45.655	test_final	2022.2.4	60.06485817809829	n/a
NimStim_Database/Images/01F_NE_O.BMP	utils/practice/ScrambledFW_28M_NE_O.BMP	utils/practice/ScrambledBW_28M_NE_O.BMP	utils/practice/fake_prac14.jpg	utils/practice/fake_prac8.jpg	n/a	n/a	n/a	n/a	n/a	0.0	2.0	2.0	12.0	n/a	n/a	n/a	n/a	n/a	n/a	n/a	n/a	n/a	n/a	n/a	n/a	n/a	n/a	n/a	n/a	n/a	n/a	n/a	n/a	n/a	n/a	n/a	n/a	n/a	n/a	n/a	n/a	n/a	n/a	n/a	n/a	n/a	n/a	n/a	n/a	n/a	n/a	n/a	n/a	n/a	n/a	n/a	n/a	n/a	n/a	n/a	n/a	n/a	n/a	n/a	n/a	n/a	n/a	n/a	n/a	n/a	n/a	n/a	n/a	n/a	n/a	n/a	n/a	n/a	n/a	n/a	n/a	n/a	n/a	428.0466239000671	n/a	n/a	n/a	n/a	n/a	n/a	n/a	n/a	n/a	n/a	n/a	n/a	n/a	n/a	n/a	n/a	n/a	n/a	n/a	n/a	n/a	n/a	n/a	n/a	n/a	n/a	n/a	n/a	utils/practice/ScrambledFW_28M_NE_O.BMP	n/a	n/a	n/a	n/a	n/a	n/a	utils/practice/ScrambledBW_28M_NE_O.BMP	n/a	n/a	n/a	n/a	n/a	n/a	n/a	n/a	n/a	n/a	n/a	n/a	n/a	n/a	n/a	n/a	n/a	n/a	n/a	n/a	n/a	n/a	n/a	n/a	n/a	n/a	n/a	n/a	42	1	2023-03-14_11h08.45.655	test_final	2022.2.4	60.06485817809829	n/a
NimStim_Database/Images/12F_NE_C.BMP	utils/practice/ScrambledFW_03F_NE_O.BMP	utils/practice/ScrambledBW_03F_NE_O.BMP	utils/practice/real_prac9.jpg	utils/practice/real_prac13.jpg	n/a	n/a	n/a	n/a	n/a	0.0	3.0	3.0	1.0	n/a	n/a	n/a	n/a	0.0	0.0	0.0	0.0	n/a	n/a	n/a	n/a	n/a	n/a	n/a	n/a	n/a	n/a	n/a	n/a	n/a	n/a	n/a	n/a	n/a	n/a	n/a	n/a	n/a	n/a	n/a	n/a	n/a	n/a	n/a	n/a	n/a	n/a	n/a	n/a	n/a	n/a	n/a	n/a	n/a	430.0611466001719	432.5104872002266	2.4399999999999906	n/a	n/a	n/a	n/a	n/a	n/a	n/a	n/a	n/a	n/a	n/a	n/a	n/a	n/a	n/a	n/a	n/a	n/a	n/a	n/a	n/a	n/a	n/a	n/a	n/a	n/a	n/a	432.5104872002266	432.6460027000867	432.6460027000867	432.67727679992095	432.67727679992095	432.7411984000355	432.7411984000355	432.7411984000355	432.7411984000355	432.7411984000355	432.7411984000355	432.7411984000355	None	433.4739605002105	433.4739605002105	space	1.290406999643892	n/a	n/a	n/a	n/a	n/a	n/a	n/a	utils/practice/ScrambledFW_03F_NE_O.BMP	n/a	n/a	n/a	n/a	n/a	n/a	utils/practice/ScrambledBW_03F_NE_O.BMP	n/a	n/a	n/a	n/a	n/a	n/a	n/a	n/a	n/a	n/a	n/a	n/a	n/a	n/a	n/a	n/a	n/a	n/a	n/a	n/a	n/a	n/a	n/a	n/a	n/a	n/a	n/a	n/a	42	1	2023-03-14_11h08.45.655	test_final	2022.2.4	60.06485817809829	n/a
NimStim_Database/Images/12F_NE_C.BMP	utils/practice/ScrambledFW_03F_NE_O.BMP	utils/practice/ScrambledBW_03F_NE_O.BMP	utils/practice/real_prac9.jpg	utils/practice/real_prac13.jpg	n/a	n/a	n/a	n/a	n/a	0.0	3.0	3.0	1.0	n/a	n/a	n/a	n/a	n/a	n/a	n/a	n/a	n/a	n/a	n/a	n/a	n/a	n/a	n/a	n/a	n/a	n/a	n/a	n/a	n/a	n/a	n/a	n/a	n/a	n/a	n/a	n/a	n/a	n/a	n/a	n/a	n/a	n/a	n/a	n/a	n/a	n/a	n/a	n/a	n/a	n/a	n/a	n/a	n/a	n/a	n/a	n/a	n/a	n/a	n/a	n/a	n/a	n/a	n/a	n/a	n/a	n/a	n/a	n/a	n/a	n/a	n/a	n/a	n/a	n/a	n/a	n/a	n/a	n/a	434.7890364001505	n/a	n/a	n/a	n/a	n/a	n/a	n/a	n/a	n/a	n/a	n/a	n/a	n/a	n/a	n/a	n/a	n/a	n/a	n/a	n/a	n/a	n/a	n/a	n/a	n/a	n/a	n/a	n/a	utils/practice/ScrambledFW_03F_NE_O.BMP	n/a	n/a	n/a	n/a	n/a	n/a	utils/practice/ScrambledBW_03F_NE_O.BMP	n/a	n/a	n/a	n/a	n/a	n/a	n/a	n/a	n/a	n/a	n/a	n/a	n/a	n/a	n/a	n/a	n/a	n/a	n/a	n/a	n/a	n/a	n/a	n/a	n/a	n/a	n/a	n/a	42	1	2023-03-14_11h08.45.655	test_final	2022.2.4	60.06485817809829	n/a
NimStim_Database/Images/28M_NE_O.BMP	utils/practice/ScrambledFW_12F_NE_C.BMP	utils/practice/ScrambledBW_12F_NE_C.BMP	utils/practice/fake_prac3.jpg	utils/practice/fake_prac10.jpg	n/a	n/a	n/a	n/a	n/a	0.0	4.0	4.0	5.0	0.0	0.0	0.0	0.0	n/a	n/a	n/a	n/a	n/a	n/a	n/a	n/a	n/a	n/a	n/a	n/a	n/a	n/a	n/a	n/a	n/a	n/a	n/a	n/a	n/a	n/a	n/a	n/a	n/a	n/a	n/a	n/a	n/a	n/a	n/a	n/a	n/a	n/a	n/a	n/a	n/a	n/a	n/a	n/a	n/a	436.80351330013946	439.1198670002632	2.3099999999999934	n/a	n/a	n/a	n/a	n/a	n/a	n/a	n/a	n/a	n/a	n/a	n/a	n/a	n/a	n/a	n/a	n/a	n/a	n/a	n/a	n/a	n/a	n/a	n/a	n/a	n/a	n/a	439.1198670002632	439.2175072999671	439.2175072999671	439.254231300205	439.254231300205	439.3149763001129	439.3149763001129	439.3149763001129	439.3149763001129	439.3149763001129	439.3149763001129	439.3149763001129	right	n/a	n/a	n/a	n/a	0.3587011997587979	439.70039380015805	n/a	n/a	n/a	n/a	n/a	utils/practice/ScrambledFW_12F_NE_C.BMP	n/a	n/a	n/a	n/a	n/a	n/a	utils/practice/ScrambledBW_12F_NE_C.BMP	n/a	n/a	n/a	n/a	n/a	n/a	n/a	n/a	n/a	n/a	n/a	n/a	n/a	n/a	n/a	n/a	n/a	n/a	n/a	n/a	n/a	n/a	n/a	n/a	n/a	n/a	n/a	n/a	42	1	2023-03-14_11h08.45.655	test_final	2022.2.4	60.06485817809829	n/a
NimStim_Database/Images/28M_NE_O.BMP	utils/practice/ScrambledFW_12F_NE_C.BMP	utils/practice/ScrambledBW_12F_NE_C.BMP	utils/practice/fake_prac3.jpg	utils/practice/fake_prac10.jpg	n/a	n/a	n/a	n/a	n/a	0.0	4.0	4.0	5.0	n/a	n/a	n/a	n/a	n/a	n/a	n/a	n/a	0.0	0.0	0.0	0.0	n/a	n/a	n/a	n/a	n/a	n/a	n/a	n/a	n/a	n/a	n/a	n/a	n/a	n/a	n/a	n/a	n/a	n/a	n/a	n/a	n/a	n/a	n/a	n/a	n/a	n/a	n/a	n/a	n/a	n/a	n/a	n/a	n/a	n/a	n/a	n/a	n/a	n/a	n/a	n/a	n/a	n/a	n/a	n/a	n/a	n/a	440.71605350030586	440.71605350030586	1.0	1.8066894998773928	442.5473738000728	442.5473738000728	442.5473738000728	442.5473738000728	442.5473738000728	442.5473738000728	1.0	1.0389070995151997	n/a	n/a	n/a	n/a	n/a	n/a	n/a	n/a	n/a	n/a	n/a	n/a	n/a	n/a	n/a	n/a	n/a	n/a	n/a	n/a	n/a	n/a	n/a	n/a	n/a	n/a	n/a	n/a	n/a	utils/practice/ScrambledFW_12F_NE_C.BMP	n/a	n/a	n/a	n/a	n/a	n/a	utils/practice/ScrambledBW_12F_NE_C.BMP	n/a	n/a	n/a	n/a	n/a	n/a	n/a	n/a	n/a	n/a	n/a	n/a	n/a	n/a	n/a	n/a	n/a	n/a	n/a	n/a	n/a	n/a	n/a	n/a	n/a	n/a	n/a	n/a	42	1	2023-03-14_11h08.45.655	test_final	2022.2.4	60.06485817809829	n/a
NimStim_Database/Images/28M_NE_O.BMP	utils/practice/ScrambledFW_12F_NE_C.BMP	utils/practice/ScrambledBW_12F_NE_C.BMP	utils/practice/fake_prac3.jpg	utils/practice/fake_prac10.jpg	n/a	n/a	n/a	n/a	n/a	0.0	4.0	4.0	5.0	n/a	n/a	n/a	n/a	n/a	n/a	n/a	n/a	n/a	n/a	n/a	n/a	n/a	n/a	n/a	n/a	n/a	n/a	n/a	n/a	n/a	n/a	n/a	n/a	n/a	n/a	n/a	n/a	n/a	n/a	n/a	n/a	n/a	n/a	n/a	n/a	n/a	n/a	n/a	n/a	n/a	n/a	n/a	n/a	n/a	n/a	n/a	n/a	n/a	n/a	n/a	n/a	n/a	n/a	n/a	n/a	n/a	n/a	n/a	n/a	n/a	n/a	n/a	n/a	n/a	n/a	n/a	n/a	n/a	n/a	443.61285790009424	n/a	n/a	n/a	n/a	n/a	n/a	n/a	n/a	n/a	n/a	n/a	n/a	n/a	n/a	n/a	n/a	n/a	n/a	n/a	n/a	n/a	n/a	n/a	n/a	n/a	n/a	n/a	n/a	utils/practice/ScrambledFW_12F_NE_C.BMP	n/a	n/a	n/a	n/a	n/a	n/a	utils/practice/ScrambledBW_12F_NE_C.BMP	n/a	n/a	n/a	n/a	n/a	n/a	n/a	n/a	n/a	n/a	n/a	n/a	n/a	n/a	n/a	n/a	n/a	n/a	n/a	n/a	n/a	n/a	n/a	n/a	n/a	n/a	n/a	n/a	42	1	2023-03-14_11h08.45.655	test_final	2022.2.4	60.06485817809829	n/a
NimStim_Database/Images/03F_NE_O.BMP	utils/practice/ScrambledFW_23M_NE_C.BMP	utils/practice/ScrambledBW_23M_NE_C.BMP	utils/practice/fake_prac7.jpg	utils/practice/real_prac6.jpg	n/a	n/a	n/a	n/a	n/a	0.0	5.0	5.0	8.0	0.0	0.0	0.0	0.0	n/a	n/a	n/a	n/a	n/a	n/a	n/a	n/a	n/a	n/a	n/a	n/a	n/a	n/a	n/a	n/a	n/a	n/a	n/a	n/a	n/a	n/a	n/a	n/a	n/a	n/a	n/a	n/a	n/a	n/a	n/a	n/a	n/a	n/a	n/a	n/a	n/a	n/a	n/a	n/a	n/a	445.6271116002463	448.0773912002333	2.4399999999999906	n/a	n/a	n/a	n/a	n/a	n/a	n/a	n/a	n/a	n/a	n/a	n/a	n/a	n/a	n/a	n/a	n/a	n/a	n/a	n/a	n/a	n/a	n/a	n/a	n/a	n/a	n/a	448.0773912002333	448.2078966000117	448.2078966000117	448.24474860029295	448.24474860029295	448.3047373001464	448.3047373001464	448.3047373001464	448.3047373001464	448.3047373001464	448.3047373001464	448.3047373001464	right	n/a	n/a	n/a	n/a	0.4858793998137116	448.8071362003684	449.806018400006	n/a	n/a	n/a	n/a	utils/practice/ScrambledFW_23M_NE_C.BMP	n/a	n/a	n/a	n/a	n/a	n/a	utils/practice/ScrambledBW_23M_NE_C.BMP	n/a	n/a	n/a	n/a	n/a	n/a	n/a	n/a	n/a	n/a	n/a	n/a	n/a	n/a	n/a	n/a	n/a	n/a	n/a	n/a	n/a	n/a	n/a	n/a	n/a	n/a	n/a	n/a	42	1	2023-03-14_11h08.45.655	test_final	2022.2.4	60.06485817809829	n/a
NimStim_Database/Images/03F_NE_O.BMP	utils/practice/ScrambledFW_23M_NE_C.BMP	utils/practice/ScrambledBW_23M_NE_C.BMP	utils/practice/fake_prac7.jpg	utils/practice/real_prac6.jpg	n/a	n/a	n/a	n/a	n/a	0.0	5.0	5.0	8.0	n/a	n/a	n/a	n/a	n/a	n/a	n/a	n/a	0.0	0.0	0.0	0.0	n/a	n/a	n/a	n/a	n/a	n/a	n/a	n/a	n/a	n/a	n/a	n/a	n/a	n/a	n/a	n/a	n/a	n/a	n/a	n/a	n/a	n/a	n/a	n/a	n/a	n/a	n/a	n/a	n/a	n/a	n/a	n/a	n/a	n/a	n/a	n/a	n/a	n/a	n/a	n/a	n/a	n/a	n/a	n/a	n/a	n/a	449.806018400006	449.806018400006	4.0	0.6054477994330227	450.43872970016673	450.43872970016673	450.43872970016673	450.43872970016673	450.43872970016673	450.43872970016673	4.0	0.6004683999344707	n/a	n/a	n/a	n/a	n/a	n/a	n/a	n/a	n/a	n/a	n/a	n/a	n/a	n/a	n/a	n/a	n/a	n/a	n/a	n/a	n/a	n/a	n/a	n/a	n/a	n/a	n/a	n/a	n/a	utils/practice/ScrambledFW_23M_NE_C.BMP	n/a	n/a	n/a	n/a	n/a	n/a	utils/practice/ScrambledBW_23M_NE_C.BMP	n/a	n/a	n/a	n/a	n/a	n/a	n/a	n/a	n/a	n/a	n/a	n/a	n/a	n/a	n/a	n/a	n/a	n/a	n/a	n/a	n/a	n/a	n/a	n/a	n/a	n/a	n/a	n/a	42	1	2023-03-14_11h08.45.655	test_final	2022.2.4	60.06485817809829	n/a
NimStim_Database/Images/03F_NE_O.BMP	utils/practice/ScrambledFW_23M_NE_C.BMP	utils/practice/ScrambledBW_23M_NE_C.BMP	utils/practice/fake_prac7.jpg	utils/practice/real_prac6.jpg	n/a	n/a	n/a	n/a	n/a	0.0	5.0	5.0	8.0	n/a	n/a	n/a	n/a	n/a	n/a	n/a	n/a	n/a	n/a	n/a	n/a	n/a	n/a	n/a	n/a	n/a	n/a	n/a	n/a	n/a	n/a	n/a	n/a	n/a	n/a	n/a	n/a	n/a	n/a	n/a	n/a	n/a	n/a	n/a	n/a	n/a	n/a	n/a	n/a	n/a	n/a	n/a	n/a	n/a	n/a	n/a	n/a	n/a	n/a	n/a	n/a	n/a	n/a	n/a	n/a	n/a	n/a	n/a	n/a	n/a	n/a	n/a	n/a	n/a	n/a	n/a	n/a	n/a	n/a	451.0711046000943	n/a	n/a	n/a	n/a	n/a	n/a	n/a	n/a	n/a	n/a	n/a	n/a	n/a	n/a	n/a	n/a	n/a	n/a	n/a	n/a	n/a	n/a	n/a	n/a	n/a	n/a	n/a	n/a	utils/practice/ScrambledFW_23M_NE_C.BMP	n/a	n/a	n/a	n/a	n/a	n/a	utils/practice/ScrambledBW_23M_NE_C.BMP	n/a	n/a	n/a	n/a	n/a	n/a	n/a	n/a	n/a	n/a	n/a	n/a	n/a	n/a	n/a	n/a	n/a	n/a	n/a	n/a	n/a	n/a	n/a	n/a	n/a	n/a	n/a	n/a	42	1	2023-03-14_11h08.45.655	test_final	2022.2.4	60.06485817809829	n/a
NimStim_Database/Images/25M_NE_C.BMP	utils/practice/ScrambledFW_01F_NE_O.BMP	utils/practice/ScrambledBW_01F_NE_O.BMP	utils/practice/real_prac1.jpg	utils/practice/real_prac10.jpg	n/a	n/a	n/a	n/a	n/a	0.0	6.0	6.0	0.0	0.0	0.0	0.0	0.0	n/a	n/a	n/a	n/a	n/a	n/a	n/a	n/a	n/a	n/a	n/a	n/a	n/a	n/a	n/a	n/a	n/a	n/a	n/a	n/a	n/a	n/a	n/a	n/a	n/a	n/a	n/a	n/a	n/a	n/a	n/a	n/a	n/a	n/a	n/a	n/a	n/a	n/a	n/a	n/a	n/a	453.0857995999977	455.2189303003252	2.129999999999997	n/a	n/a	n/a	n/a	n/a	n/a	n/a	n/a	n/a	n/a	n/a	n/a	n/a	n/a	n/a	n/a	n/a	n/a	n/a	n/a	n/a	n/a	n/a	n/a	n/a	n/a	n/a	455.2189303003252	455.3500198000111	455.3500198000111	455.38840540032834	455.38840540032834	455.4490547003225	455.4490547003225	455.4490547003225	455.4490547003225	455.4490547003225	455.4490547003225	455.4490547003225	left	n/a	n/a	n/a	n/a	0.6238243994303048	456.0992038003169	n/a	n/a	n/a	n/a	n/a	utils/practice/ScrambledFW_01F_NE_O.BMP	n/a	n/a	n/a	n/a	n/a	n/a	utils/practice/ScrambledBW_01F_NE_O.BMP	n/a	n/a	n/a	n/a	n/a	n/a	n/a	n/a	n/a	n/a	n/a	n/a	n/a	n/a	n/a	n/a	n/a	n/a	n/a	n/a	n/a	n/a	n/a	n/a	n/a	n/a	n/a	n/a	42	1	2023-03-14_11h08.45.655	test_final	2022.2.4	60.06485817809829	n/a
NimStim_Database/Images/25M_NE_C.BMP	utils/practice/ScrambledFW_01F_NE_O.BMP	utils/practice/ScrambledBW_01F_NE_O.BMP	utils/practice/real_prac1.jpg	utils/practice/real_prac10.jpg	n/a	n/a	n/a	n/a	n/a	0.0	6.0	6.0	0.0	n/a	n/a	n/a	n/a	n/a	n/a	n/a	n/a	0.0	0.0	0.0	0.0	n/a	n/a	n/a	n/a	n/a	n/a	n/a	n/a	n/a	n/a	n/a	n/a	n/a	n/a	n/a	n/a	n/a	n/a	n/a	n/a	n/a	n/a	n/a	n/a	n/a	n/a	n/a	n/a	n/a	n/a	n/a	n/a	n/a	n/a	n/a	n/a	n/a	n/a	n/a	n/a	n/a	n/a	n/a	n/a	n/a	n/a	457.1145325000398	457.1145325000398	4.0	0.6153630996122956	457.7473208000884	457.7473208000884	457.7473208000884	457.7473208000884	457.7473208000884	457.7473208000884	1.0	0.8579226997680962	n/a	n/a	n/a	n/a	n/a	n/a	n/a	n/a	n/a	n/a	n/a	n/a	n/a	n/a	n/a	n/a	n/a	n/a	n/a	n/a	n/a	n/a	n/a	n/a	n/a	n/a	n/a	n/a	n/a	utils/practice/ScrambledFW_01F_NE_O.BMP	n/a	n/a	n/a	n/a	n/a	n/a	utils/practice/ScrambledBW_01F_NE_O.BMP	n/a	n/a	n/a	n/a	n/a	n/a	n/a	n/a	n/a	n/a	n/a	n/a	n/a	n/a	n/a	n/a	n/a	n/a	n/a	n/a	n/a	n/a	n/a	n/a	n/a	n/a	n/a	n/a	42	1	2023-03-14_11h08.45.655	test_final	2022.2.4	60.06485817809829	n/a
NimStim_Database/Images/25M_NE_C.BMP	utils/practice/ScrambledFW_01F_NE_O.BMP	utils/practice/ScrambledBW_01F_NE_O.BMP	utils/practice/real_prac1.jpg	utils/practice/real_prac10.jpg	n/a	n/a	n/a	n/a	n/a	0.0	6.0	6.0	0.0	n/a	n/a	n/a	n/a	n/a	n/a	n/a	n/a	n/a	n/a	n/a	n/a	n/a	n/a	n/a	n/a	n/a	n/a	n/a	n/a	n/a	n/a	n/a	n/a	n/a	n/a	n/a	n/a	n/a	n/a	n/a	n/a	n/a	n/a	n/a	n/a	n/a	n/a	n/a	n/a	n/a	n/a	n/a	n/a	n/a	n/a	n/a	n/a	n/a	n/a	n/a	n/a	n/a	n/a	n/a	n/a	n/a	n/a	n/a	n/a	n/a	n/a	n/a	n/a	n/a	n/a	n/a	n/a	n/a	n/a	458.6297629000619	n/a	n/a	n/a	n/a	n/a	n/a	n/a	n/a	n/a	n/a	n/a	n/a	n/a	n/a	n/a	n/a	n/a	n/a	n/a	n/a	n/a	n/a	n/a	n/a	n/a	n/a	n/a	n/a	utils/practice/ScrambledFW_01F_NE_O.BMP	n/a	n/a	n/a	n/a	n/a	n/a	utils/practice/ScrambledBW_01F_NE_O.BMP	n/a	n/a	n/a	n/a	n/a	n/a	n/a	n/a	n/a	n/a	n/a	n/a	n/a	n/a	n/a	n/a	n/a	n/a	n/a	n/a	n/a	n/a	n/a	n/a	n/a	n/a	n/a	n/a	42	1	2023-03-14_11h08.45.655	test_final	2022.2.4	60.06485817809829	n/a
NimStim_Database/Images/33M_NE_C.BMP	utils/practice/ScrambledFW_25M_NE_C.BMP	utils/practice/ScrambledBW_25M_NE_C.BMP	utils/practice/fake_prac4.jpg	utils/practice/fake_prac5.jpg	n/a	n/a	n/a	n/a	n/a	0.0	7.0	7.0	10.0	n/a	n/a	n/a	n/a	0.0	0.0	0.0	0.0	n/a	n/a	n/a	n/a	n/a	n/a	n/a	n/a	n/a	n/a	n/a	n/a	n/a	n/a	n/a	n/a	n/a	n/a	n/a	n/a	n/a	n/a	n/a	n/a	n/a	n/a	n/a	n/a	n/a	n/a	n/a	n/a	n/a	n/a	n/a	n/a	n/a	460.6440687002614	462.8623605999164	2.199999999999996	n/a	n/a	n/a	n/a	n/a	n/a	n/a	n/a	n/a	n/a	n/a	n/a	n/a	n/a	n/a	n/a	n/a	n/a	n/a	n/a	n/a	n/a	n/a	n/a	n/a	n/a	n/a	462.8623605999164	462.9748909999616	462.9748909999616	463.0115960999392	463.0115960999392	463.0703384000808	463.0703384000808	463.0703384000808	463.0703384000808	463.0703384000808	463.0703384000808	463.0703384000808	None	463.8073837999255	463.8073837999255	space	1.3108442998491228	n/a	n/a	n/a	n/a	n/a	n/a	n/a	utils/practice/ScrambledFW_25M_NE_C.BMP	n/a	n/a	n/a	n/a	n/a	n/a	utils/practice/ScrambledBW_25M_NE_C.BMP	n/a	n/a	n/a	n/a	n/a	n/a	n/a	n/a	n/a	n/a	n/a	n/a	n/a	n/a	n/a	n/a	n/a	n/a	n/a	n/a	n/a	n/a	n/a	n/a	n/a	n/a	n/a	n/a	42	1	2023-03-14_11h08.45.655	test_final	2022.2.4	60.06485817809829	n/a
NimStim_Database/Images/33M_NE_C.BMP	utils/practice/ScrambledFW_25M_NE_C.BMP	utils/practice/ScrambledBW_25M_NE_C.BMP	utils/practice/fake_prac4.jpg	utils/practice/fake_prac5.jpg	n/a	n/a	n/a	n/a	n/a	0.0	7.0	7.0	10.0	n/a	n/a	n/a	n/a	n/a	n/a	n/a	n/a	n/a	n/a	n/a	n/a	n/a	n/a	n/a	n/a	n/a	n/a	n/a	n/a	n/a	n/a	n/a	n/a	n/a	n/a	n/a	n/a	n/a	n/a	n/a	n/a	n/a	n/a	n/a	n/a	n/a	n/a	n/a	n/a	n/a	n/a	n/a	n/a	n/a	n/a	n/a	n/a	n/a	n/a	n/a	n/a	n/a	n/a	n/a	n/a	n/a	n/a	n/a	n/a	n/a	n/a	n/a	n/a	n/a	n/a	n/a	n/a	n/a	n/a	465.1389917000197	n/a	n/a	n/a	n/a	n/a	n/a	n/a	n/a	n/a	n/a	n/a	n/a	n/a	n/a	n/a	n/a	n/a	n/a	n/a	n/a	n/a	n/a	n/a	n/a	n/a	n/a	n/a	n/a	utils/practice/ScrambledFW_25M_NE_C.BMP	n/a	n/a	n/a	n/a	n/a	n/a	utils/practice/ScrambledBW_25M_NE_C.BMP	n/a	n/a	n/a	n/a	n/a	n/a	n/a	n/a	n/a	n/a	n/a	n/a	n/a	n/a	n/a	n/a	n/a	n/a	n/a	n/a	n/a	n/a	n/a	n/a	n/a	n/a	n/a	n/a	42	1	2023-03-14_11h08.45.655	test_final	2022.2.4	60.06485817809829	n/a
NimStim_Database/Images/15F_NE_O.BMP	utils/practice/ScrambledFW_08F_NE_O.BMP	utils/practice/ScrambledBW_08F_NE_O.BMP	utils/practice/real_prac4.jpg	utils/practice/fake_prac12.jpg	n/a	n/a	n/a	n/a	n/a	0.0	8.0	8.0	3.0	n/a	n/a	n/a	n/a	0.0	0.0	0.0	0.0	n/a	n/a	n/a	n/a	n/a	n/a	n/a	n/a	n/a	n/a	n/a	n/a	n/a	n/a	n/a	n/a	n/a	n/a	n/a	n/a	n/a	n/a	n/a	n/a	n/a	n/a	n/a	n/a	n/a	n/a	n/a	n/a	n/a	n/a	n/a	n/a	n/a	467.15351950004697	469.5032613002695	2.3399999999999928	n/a	n/a	n/a	n/a	n/a	n/a	n/a	n/a	n/a	n/a	n/a	n/a	n/a	n/a	n/a	n/a	n/a	n/a	n/a	n/a	n/a	n/a	n/a	n/a	n/a	n/a	n/a	469.5032613002695	469.6343070999719	469.6343070999719	469.6697166003287	469.6697166003287	469.7283002999611	469.7283002999611	469.7283002999611	469.7283002999611	469.7283002999611	469.7283002999611	469.7283002999611	None	470.4665554999374	470.4665554999374	space	0.8227413995191455	n/a	n/a	n/a	n/a	n/a	n/a	n/a	utils/practice/ScrambledFW_08F_NE_O.BMP	n/a	n/a	n/a	n/a	n/a	n/a	utils/practice/ScrambledBW_08F_NE_O.BMP	n/a	n/a	n/a	n/a	n/a	n/a	n/a	n/a	n/a	n/a	n/a	n/a	n/a	n/a	n/a	n/a	n/a	n/a	n/a	n/a	n/a	n/a	n/a	n/a	n/a	n/a	n/a	n/a	42	1	2023-03-14_11h08.45.655	test_final	2022.2.4	60.06485817809829	n/a
NimStim_Database/Images/15F_NE_O.BMP	utils/practice/ScrambledFW_08F_NE_O.BMP	utils/practice/ScrambledBW_08F_NE_O.BMP	utils/practice/real_prac4.jpg	utils/practice/fake_prac12.jpg	n/a	n/a	n/a	n/a	n/a	0.0	8.0	8.0	3.0	n/a	n/a	n/a	n/a	n/a	n/a	n/a	n/a	n/a	n/a	n/a	n/a	n/a	n/a	n/a	n/a	n/a	n/a	n/a	n/a	n/a	n/a	n/a	n/a	n/a	n/a	n/a	n/a	n/a	n/a	n/a	n/a	n/a	n/a	n/a	n/a	n/a	n/a	n/a	n/a	n/a	n/a	n/a	n/a	n/a	n/a	n/a	n/a	n/a	n/a	n/a	n/a	n/a	n/a	n/a	n/a	n/a	n/a	n/a	n/a	n/a	n/a	n/a	n/a	n/a	n/a	n/a	n/a	n/a	n/a	471.3155640000477	n/a	n/a	n/a	n/a	n/a	n/a	n/a	n/a	n/a	n/a	n/a	n/a	n/a	n/a	n/a	n/a	n/a	n/a	n/a	n/a	n/a	n/a	n/a	n/a	n/a	n/a	n/a	n/a	utils/practice/ScrambledFW_08F_NE_O.BMP	n/a	n/a	n/a	n/a	n/a	n/a	utils/practice/ScrambledBW_08F_NE_O.BMP	n/a	n/a	n/a	n/a	n/a	n/a	n/a	n/a	n/a	n/a	n/a	n/a	n/a	n/a	n/a	n/a	n/a	n/a	n/a	n/a	n/a	n/a	n/a	n/a	n/a	n/a	n/a	n/a	42	1	2023-03-14_11h08.45.655	test_final	2022.2.4	60.06485817809829	n/a
NimStim_Database/Images/37M_NE_C.BMP	utils/practice/ScrambledFW_24M_NE_C.BMP	utils/practice/ScrambledBW_24M_NE_C.BMP	utils/practice/real_prac7.jpg	utils/practice/real_prac14.jpg	n/a	n/a	n/a	n/a	n/a	0.0	9.0	9.0	9.0	n/a	n/a	n/a	n/a	0.0	0.0	0.0	0.0	n/a	n/a	n/a	n/a	n/a	n/a	n/a	n/a	n/a	n/a	n/a	n/a	n/a	n/a	n/a	n/a	n/a	n/a	n/a	n/a	n/a	n/a	n/a	n/a	n/a	n/a	n/a	n/a	n/a	n/a	n/a	n/a	n/a	n/a	n/a	n/a	n/a	473.33004719996825	475.5630320003256	2.2199999999999958	n/a	n/a	n/a	n/a	n/a	n/a	n/a	n/a	n/a	n/a	n/a	n/a	n/a	n/a	n/a	n/a	n/a	n/a	n/a	n/a	n/a	n/a	n/a	n/a	n/a	n/a	n/a	475.5630320003256	475.6797473002225	475.6797473002225	475.7129454002716	475.7129454002716	475.7708364999853	475.7708364999853	475.7708364999853	475.7708364999853	475.7708364999853	475.7708364999853	475.7708364999853	None	476.5098705999553	476.5098705999553	space	2.509374099317938	n/a	n/a	n/a	n/a	n/a	n/a	n/a	utils/practice/ScrambledFW_24M_NE_C.BMP	n/a	n/a	n/a	n/a	n/a	n/a	utils/practice/ScrambledBW_24M_NE_C.BMP	n/a	n/a	n/a	n/a	n/a	n/a	n/a	n/a	n/a	n/a	n/a	n/a	n/a	n/a	n/a	n/a	n/a	n/a	n/a	n/a	n/a	n/a	n/a	n/a	n/a	n/a	n/a	n/a	42	1	2023-03-14_11h08.45.655	test_final	2022.2.4	60.06485817809829	n/a
NimStim_Database/Images/37M_NE_C.BMP	utils/practice/ScrambledFW_24M_NE_C.BMP	utils/practice/ScrambledBW_24M_NE_C.BMP	utils/practice/real_prac7.jpg	utils/practice/real_prac14.jpg	n/a	n/a	n/a	n/a	n/a	0.0	9.0	9.0	9.0	n/a	n/a	n/a	n/a	n/a	n/a	n/a	n/a	n/a	n/a	n/a	n/a	n/a	n/a	n/a	n/a	n/a	n/a	n/a	n/a	n/a	n/a	n/a	n/a	n/a	n/a	n/a	n/a	n/a	n/a	n/a	n/a	n/a	n/a	n/a	n/a	n/a	n/a	n/a	n/a	n/a	n/a	n/a	n/a	n/a	n/a	n/a	n/a	n/a	n/a	n/a	n/a	n/a	n/a	n/a	n/a	n/a	n/a	n/a	n/a	n/a	n/a	n/a	n/a	n/a	n/a	n/a	n/a	n/a	n/a	479.04037229996175	n/a	n/a	n/a	n/a	n/a	n/a	n/a	n/a	n/a	n/a	n/a	n/a	n/a	n/a	n/a	n/a	n/a	n/a	n/a	n/a	n/a	n/a	n/a	n/a	n/a	n/a	n/a	n/a	utils/practice/ScrambledFW_24M_NE_C.BMP	n/a	n/a	n/a	n/a	n/a	n/a	utils/practice/ScrambledBW_24M_NE_C.BMP	n/a	n/a	n/a	n/a	n/a	n/a	n/a	n/a	n/a	n/a	n/a	n/a	n/a	n/a	n/a	n/a	n/a	n/a	n/a	n/a	n/a	n/a	n/a	n/a	n/a	n/a	n/a	n/a	42	1	2023-03-14_11h08.45.655	test_final	2022.2.4	60.06485817809829	n/a
NimStim_Database/Images/06F_NE_O.BMP	utils/practice/ScrambledFW_06F_NE_O.BMP	utils/practice/ScrambledBW_06F_NE_O.BMP	utils/practice/fake_prac2.jpg	utils/practice/real_prac15.jpg	n/a	n/a	n/a	n/a	n/a	0.0	10.0	10.0	2.0	0.0	0.0	0.0	0.0	n/a	n/a	n/a	n/a	n/a	n/a	n/a	n/a	n/a	n/a	n/a	n/a	n/a	n/a	n/a	n/a	n/a	n/a	n/a	n/a	n/a	n/a	n/a	n/a	n/a	n/a	n/a	n/a	n/a	n/a	n/a	n/a	n/a	n/a	n/a	n/a	n/a	n/a	n/a	n/a	n/a	481.05494440020993	483.07334530027583	2.01	n/a	n/a	n/a	n/a	n/a	n/a	n/a	n/a	n/a	n/a	n/a	n/a	n/a	n/a	n/a	n/a	n/a	n/a	n/a	n/a	n/a	n/a	n/a	n/a	n/a	n/a	n/a	483.07334530027583	483.2208186001517	483.2208186001517	483.2550631002523	483.2550631002523	483.31172320013866	483.31172320013866	483.31172320013866	483.31172320013866	483.31172320013866	483.31172320013866	483.31172320013866	right	n/a	n/a	n/a	n/a	0.4072944996878505	483.7352134999819	484.7342644999735	n/a	n/a	n/a	n/a	utils/practice/ScrambledFW_06F_NE_O.BMP	n/a	n/a	n/a	n/a	n/a	n/a	utils/practice/ScrambledBW_06F_NE_O.BMP	n/a	n/a	n/a	n/a	n/a	n/a	n/a	n/a	n/a	n/a	n/a	n/a	n/a	n/a	n/a	n/a	n/a	n/a	n/a	n/a	n/a	n/a	n/a	n/a	n/a	n/a	n/a	n/a	42	1	2023-03-14_11h08.45.655	test_final	2022.2.4	60.06485817809829	n/a
NimStim_Database/Images/06F_NE_O.BMP	utils/practice/ScrambledFW_06F_NE_O.BMP	utils/practice/ScrambledBW_06F_NE_O.BMP	utils/practice/fake_prac2.jpg	utils/practice/real_prac15.jpg	n/a	n/a	n/a	n/a	n/a	0.0	10.0	10.0	2.0	n/a	n/a	n/a	n/a	n/a	n/a	n/a	n/a	0.0	0.0	0.0	0.0	n/a	n/a	n/a	n/a	n/a	n/a	n/a	n/a	n/a	n/a	n/a	n/a	n/a	n/a	n/a	n/a	n/a	n/a	n/a	n/a	n/a	n/a	n/a	n/a	n/a	n/a	n/a	n/a	n/a	n/a	n/a	n/a	n/a	n/a	n/a	n/a	n/a	n/a	n/a	n/a	n/a	n/a	n/a	n/a	n/a	n/a	484.7342644999735	484.7342644999735	4.0	0.571588899474591	485.3335180003196	485.3335180003196	485.3335180003196	485.3335180003196	485.3335180003196	485.3335180003196	1.0	0.7038627997972071	n/a	n/a	n/a	n/a	n/a	n/a	n/a	n/a	n/a	n/a	n/a	n/a	n/a	n/a	n/a	n/a	n/a	n/a	n/a	n/a	n/a	n/a	n/a	n/a	n/a	n/a	n/a	n/a	n/a	utils/practice/ScrambledFW_06F_NE_O.BMP	n/a	n/a	n/a	n/a	n/a	n/a	utils/practice/ScrambledBW_06F_NE_O.BMP	n/a	n/a	n/a	n/a	n/a	n/a	n/a	n/a	n/a	n/a	n/a	n/a	n/a	n/a	n/a	n/a	n/a	n/a	n/a	n/a	n/a	n/a	n/a	n/a	n/a	n/a	n/a	n/a	42	1	2023-03-14_11h08.45.655	test_final	2022.2.4	60.06485817809829	n/a
NimStim_Database/Images/06F_NE_O.BMP	utils/practice/ScrambledFW_06F_NE_O.BMP	utils/practice/ScrambledBW_06F_NE_O.BMP	utils/practice/fake_prac2.jpg	utils/practice/real_prac15.jpg	n/a	n/a	n/a	n/a	n/a	0.0	10.0	10.0	2.0	n/a	n/a	n/a	n/a	n/a	n/a	n/a	n/a	n/a	n/a	n/a	n/a	n/a	n/a	n/a	n/a	n/a	n/a	n/a	n/a	n/a	n/a	n/a	n/a	n/a	n/a	n/a	n/a	n/a	n/a	n/a	n/a	n/a	n/a	n/a	n/a	n/a	n/a	n/a	n/a	n/a	n/a	n/a	n/a	n/a	n/a	n/a	n/a	n/a	n/a	n/a	n/a	n/a	n/a	n/a	n/a	n/a	n/a	n/a	n/a	n/a	n/a	n/a	n/a	n/a	n/a	n/a	n/a	n/a	n/a	486.06599020026624	n/a	n/a	n/a	n/a	n/a	n/a	n/a	n/a	n/a	n/a	n/a	n/a	n/a	n/a	n/a	n/a	n/a	n/a	n/a	n/a	n/a	n/a	n/a	n/a	n/a	n/a	n/a	n/a	utils/practice/ScrambledFW_06F_NE_O.BMP	n/a	n/a	n/a	n/a	n/a	n/a	utils/practice/ScrambledBW_06F_NE_O.BMP	n/a	n/a	n/a	n/a	n/a	n/a	n/a	n/a	n/a	n/a	n/a	n/a	n/a	n/a	n/a	n/a	n/a	n/a	n/a	n/a	n/a	n/a	n/a	n/a	n/a	n/a	n/a	n/a	42	1	2023-03-14_11h08.45.655	test_final	2022.2.4	60.06485817809829	n/a
NimStim_Database/Images/24M_NE_C.BMP	utils/practice/ScrambledFW_43M_NE_O.BMP	utils/practice/ScrambledBW_43M_NE_O.BMP	utils/practice/fake_prac13.jpg	utils/practice/real_prac12.jpg	n/a	n/a	n/a	n/a	n/a	0.0	11.0	11.0	15.0	0.0	0.0	0.0	0.0	n/a	n/a	n/a	n/a	n/a	n/a	n/a	n/a	n/a	n/a	n/a	n/a	n/a	n/a	n/a	n/a	n/a	n/a	n/a	n/a	n/a	n/a	n/a	n/a	n/a	n/a	n/a	n/a	n/a	n/a	n/a	n/a	n/a	n/a	n/a	n/a	n/a	n/a	n/a	n/a	n/a	488.08068530028686	490.4966382002458	2.3999999999999915	n/a	n/a	n/a	n/a	n/a	n/a	n/a	n/a	n/a	n/a	n/a	n/a	n/a	n/a	n/a	n/a	n/a	n/a	n/a	n/a	n/a	n/a	n/a	n/a	n/a	n/a	n/a	490.4966382002458	490.6148508000188	490.6148508000188	490.6467321002856	490.6467321002856	490.704220100306	490.704220100306	490.704220100306	490.704220100306	490.704220100306	490.704220100306	490.704220100306	right	n/a	n/a	n/a	n/a	0.4335751999169588	491.1603809003718	492.1595723000355	n/a	n/a	n/a	n/a	utils/practice/ScrambledFW_43M_NE_O.BMP	n/a	n/a	n/a	n/a	n/a	n/a	utils/practice/ScrambledBW_43M_NE_O.BMP	n/a	n/a	n/a	n/a	n/a	n/a	n/a	n/a	n/a	n/a	n/a	n/a	n/a	n/a	n/a	n/a	n/a	n/a	n/a	n/a	n/a	n/a	n/a	n/a	n/a	n/a	n/a	n/a	42	1	2023-03-14_11h08.45.655	test_final	2022.2.4	60.06485817809829	n/a
NimStim_Database/Images/24M_NE_C.BMP	utils/practice/ScrambledFW_43M_NE_O.BMP	utils/practice/ScrambledBW_43M_NE_O.BMP	utils/practice/fake_prac13.jpg	utils/practice/real_prac12.jpg	n/a	n/a	n/a	n/a	n/a	0.0	11.0	11.0	15.0	n/a	n/a	n/a	n/a	n/a	n/a	n/a	n/a	0.0	0.0	0.0	0.0	n/a	n/a	n/a	n/a	n/a	n/a	n/a	n/a	n/a	n/a	n/a	n/a	n/a	n/a	n/a	n/a	n/a	n/a	n/a	n/a	n/a	n/a	n/a	n/a	n/a	n/a	n/a	n/a	n/a	n/a	n/a	n/a	n/a	n/a	n/a	n/a	n/a	n/a	n/a	n/a	n/a	n/a	n/a	n/a	n/a	n/a	492.1595723000355	492.1595723000355	4.0	0.6325323996134102	492.8087565000169	492.8087565000169	492.8087565000169	492.8087565000169	492.8087565000169	492.8087565000169	4.0	0.3344754995778203	n/a	n/a	n/a	n/a	n/a	n/a	n/a	n/a	n/a	n/a	n/a	n/a	n/a	n/a	n/a	n/a	n/a	n/a	n/a	n/a	n/a	n/a	n/a	n/a	n/a	n/a	n/a	n/a	n/a	utils/practice/ScrambledFW_43M_NE_O.BMP	n/a	n/a	n/a	n/a	n/a	n/a	utils/practice/ScrambledBW_43M_NE_O.BMP	n/a	n/a	n/a	n/a	n/a	n/a	n/a	n/a	n/a	n/a	n/a	n/a	n/a	n/a	n/a	n/a	n/a	n/a	n/a	n/a	n/a	n/a	n/a	n/a	n/a	n/a	n/a	n/a	42	1	2023-03-14_11h08.45.655	test_final	2022.2.4	60.06485817809829	n/a
NimStim_Database/Images/24M_NE_C.BMP	utils/practice/ScrambledFW_43M_NE_O.BMP	utils/practice/ScrambledBW_43M_NE_O.BMP	utils/practice/fake_prac13.jpg	utils/practice/real_prac12.jpg	n/a	n/a	n/a	n/a	n/a	0.0	11.0	11.0	15.0	n/a	n/a	n/a	n/a	n/a	n/a	n/a	n/a	n/a	n/a	n/a	n/a	n/a	n/a	n/a	n/a	n/a	n/a	n/a	n/a	n/a	n/a	n/a	n/a	n/a	n/a	n/a	n/a	n/a	n/a	n/a	n/a	n/a	n/a	n/a	n/a	n/a	n/a	n/a	n/a	n/a	n/a	n/a	n/a	n/a	n/a	n/a	n/a	n/a	n/a	n/a	n/a	n/a	n/a	n/a	n/a	n/a	n/a	n/a	n/a	n/a	n/a	n/a	n/a	n/a	n/a	n/a	n/a	n/a	n/a	493.1751659000293	n/a	n/a	n/a	n/a	n/a	n/a	n/a	n/a	n/a	n/a	n/a	n/a	n/a	n/a	n/a	n/a	n/a	n/a	n/a	n/a	n/a	n/a	n/a	n/a	n/a	n/a	n/a	n/a	utils/practice/ScrambledFW_43M_NE_O.BMP	n/a	n/a	n/a	n/a	n/a	n/a	utils/practice/ScrambledBW_43M_NE_O.BMP	n/a	n/a	n/a	n/a	n/a	n/a	n/a	n/a	n/a	n/a	n/a	n/a	n/a	n/a	n/a	n/a	n/a	n/a	n/a	n/a	n/a	n/a	n/a	n/a	n/a	n/a	n/a	n/a	42	1	2023-03-14_11h08.45.655	test_final	2022.2.4	60.06485817809829	n/a
NimStim_Database/Images/43M_NE_O.BMP	utils/practice/ScrambledFW_11F_NE_C.BMP	utils/practice/ScrambledBW_11F_NE_C.BMP	utils/practice/real_prac11.jpg	utils/practice/fake_prac11.jpg	n/a	n/a	n/a	n/a	n/a	0.0	12.0	12.0	4.0	0.0	0.0	0.0	0.0	n/a	n/a	n/a	n/a	n/a	n/a	n/a	n/a	n/a	n/a	n/a	n/a	n/a	n/a	n/a	n/a	n/a	n/a	n/a	n/a	n/a	n/a	n/a	n/a	n/a	n/a	n/a	n/a	n/a	n/a	n/a	n/a	n/a	n/a	n/a	n/a	n/a	n/a	n/a	n/a	n/a	495.1894136001356	497.6065205000341	2.4099999999999917	n/a	n/a	n/a	n/a	n/a	n/a	n/a	n/a	n/a	n/a	n/a	n/a	n/a	n/a	n/a	n/a	n/a	n/a	n/a	n/a	n/a	n/a	n/a	n/a	n/a	n/a	n/a	497.6065205000341	497.7050608000718	497.7050608000718	497.73867210000753	497.73867210000753	497.7974640000612	497.7974640000612	497.7974640000612	497.7974640000612	497.7974640000612	497.7974640000612	497.7974640000612	right	n/a	n/a	n/a	n/a	0.4995273994281888	498.3194635002874	n/a	n/a	n/a	n/a	n/a	utils/practice/ScrambledFW_11F_NE_C.BMP	n/a	n/a	n/a	n/a	n/a	n/a	utils/practice/ScrambledBW_11F_NE_C.BMP	n/a	n/a	n/a	n/a	n/a	n/a	n/a	n/a	n/a	n/a	n/a	n/a	n/a	n/a	n/a	n/a	n/a	n/a	n/a	n/a	n/a	n/a	n/a	n/a	n/a	n/a	n/a	n/a	42	1	2023-03-14_11h08.45.655	test_final	2022.2.4	60.06485817809829	n/a
NimStim_Database/Images/43M_NE_O.BMP	utils/practice/ScrambledFW_11F_NE_C.BMP	utils/practice/ScrambledBW_11F_NE_C.BMP	utils/practice/real_prac11.jpg	utils/practice/fake_prac11.jpg	n/a	n/a	n/a	n/a	n/a	0.0	12.0	12.0	4.0	n/a	n/a	n/a	n/a	n/a	n/a	n/a	n/a	0.0	0.0	0.0	0.0	n/a	n/a	n/a	n/a	n/a	n/a	n/a	n/a	n/a	n/a	n/a	n/a	n/a	n/a	n/a	n/a	n/a	n/a	n/a	n/a	n/a	n/a	n/a	n/a	n/a	n/a	n/a	n/a	n/a	n/a	n/a	n/a	n/a	n/a	n/a	n/a	n/a	n/a	n/a	n/a	n/a	n/a	n/a	n/a	n/a	n/a	499.3349909000098	499.3349909000098	4.0	0.4603566997684538	499.8178105000407	499.8178105000407	499.8178105000407	499.8178105000407	499.8178105000407	499.8178105000407	1.0	0.7180736996233463	n/a	n/a	n/a	n/a	n/a	n/a	n/a	n/a	n/a	n/a	n/a	n/a	n/a	n/a	n/a	n/a	n/a	n/a	n/a	n/a	n/a	n/a	n/a	n/a	n/a	n/a	n/a	n/a	n/a	utils/practice/ScrambledFW_11F_NE_C.BMP	n/a	n/a	n/a	n/a	n/a	n/a	utils/practice/ScrambledBW_11F_NE_C.BMP	n/a	n/a	n/a	n/a	n/a	n/a	n/a	n/a	n/a	n/a	n/a	n/a	n/a	n/a	n/a	n/a	n/a	n/a	n/a	n/a	n/a	n/a	n/a	n/a	n/a	n/a	n/a	n/a	42	1	2023-03-14_11h08.45.655	test_final	2022.2.4	60.06485817809829	n/a
NimStim_Database/Images/43M_NE_O.BMP	utils/practice/ScrambledFW_11F_NE_C.BMP	utils/practice/ScrambledBW_11F_NE_C.BMP	utils/practice/real_prac11.jpg	utils/practice/fake_prac11.jpg	n/a	n/a	n/a	n/a	n/a	0.0	12.0	12.0	4.0	n/a	n/a	n/a	n/a	n/a	n/a	n/a	n/a	n/a	n/a	n/a	n/a	n/a	n/a	n/a	n/a	n/a	n/a	n/a	n/a	n/a	n/a	n/a	n/a	n/a	n/a	n/a	n/a	n/a	n/a	n/a	n/a	n/a	n/a	n/a	n/a	n/a	n/a	n/a	n/a	n/a	n/a	n/a	n/a	n/a	n/a	n/a	n/a	n/a	n/a	n/a	n/a	n/a	n/a	n/a	n/a	n/a	n/a	n/a	n/a	n/a	n/a	n/a	n/a	n/a	n/a	n/a	n/a	n/a	n/a	500.5667468002066	n/a	n/a	n/a	n/a	n/a	n/a	n/a	n/a	n/a	n/a	n/a	n/a	n/a	n/a	n/a	n/a	n/a	n/a	n/a	n/a	n/a	n/a	n/a	n/a	n/a	n/a	n/a	n/a	utils/practice/ScrambledFW_11F_NE_C.BMP	n/a	n/a	n/a	n/a	n/a	n/a	utils/practice/ScrambledBW_11F_NE_C.BMP	n/a	n/a	n/a	n/a	n/a	n/a	n/a	n/a	n/a	n/a	n/a	n/a	n/a	n/a	n/a	n/a	n/a	n/a	n/a	n/a	n/a	n/a	n/a	n/a	n/a	n/a	n/a	n/a	42	1	2023-03-14_11h08.45.655	test_final	2022.2.4	60.06485817809829	n/a
NimStim_Database/Images/28M_NE_C.BMP	utils/practice/ScrambledFW_33M_NE_C.BMP	utils/practice/ScrambledBW_33M_NE_C.BMP	utils/practice/real_prac2.jpg	utils/practice/fake_prac16.jpg	n/a	n/a	n/a	n/a	n/a	0.0	13.0	13.0	13.0	n/a	n/a	n/a	n/a	0.0	0.0	0.0	0.0	n/a	n/a	n/a	n/a	n/a	n/a	n/a	n/a	n/a	n/a	n/a	n/a	n/a	n/a	n/a	n/a	n/a	n/a	n/a	n/a	n/a	n/a	n/a	n/a	n/a	n/a	n/a	n/a	n/a	n/a	n/a	n/a	n/a	n/a	n/a	n/a	n/a	502.58124450035393	504.7479032999836	2.149999999999997	n/a	n/a	n/a	n/a	n/a	n/a	n/a	n/a	n/a	n/a	n/a	n/a	n/a	n/a	n/a	n/a	n/a	n/a	n/a	n/a	n/a	n/a	n/a	n/a	n/a	n/a	n/a	504.7479032999836	504.8650278002024	504.8650278002024	504.8977202000096	504.8977202000096	504.9580260999501	504.9580260999501	504.9580260999501	504.9580260999501	504.9580260999501	504.9580260999501	504.9580260999501	None	505.6946895001456	505.6946895001456	space	0.9361221995204688	n/a	n/a	n/a	n/a	n/a	n/a	n/a	utils/practice/ScrambledFW_33M_NE_C.BMP	n/a	n/a	n/a	n/a	n/a	n/a	utils/practice/ScrambledBW_33M_NE_C.BMP	n/a	n/a	n/a	n/a	n/a	n/a	n/a	n/a	n/a	n/a	n/a	n/a	n/a	n/a	n/a	n/a	n/a	n/a	n/a	n/a	n/a	n/a	n/a	n/a	n/a	n/a	n/a	n/a	42	1	2023-03-14_11h08.45.655	test_final	2022.2.4	60.06485817809829	n/a
NimStim_Database/Images/28M_NE_C.BMP	utils/practice/ScrambledFW_33M_NE_C.BMP	utils/practice/ScrambledBW_33M_NE_C.BMP	utils/practice/real_prac2.jpg	utils/practice/fake_prac16.jpg	n/a	n/a	n/a	n/a	n/a	0.0	13.0	13.0	13.0	n/a	n/a	n/a	n/a	n/a	n/a	n/a	n/a	n/a	n/a	n/a	n/a	n/a	n/a	n/a	n/a	n/a	n/a	n/a	n/a	n/a	n/a	n/a	n/a	n/a	n/a	n/a	n/a	n/a	n/a	n/a	n/a	n/a	n/a	n/a	n/a	n/a	n/a	n/a	n/a	n/a	n/a	n/a	n/a	n/a	n/a	n/a	n/a	n/a	n/a	n/a	n/a	n/a	n/a	n/a	n/a	n/a	n/a	n/a	n/a	n/a	n/a	n/a	n/a	n/a	n/a	n/a	n/a	n/a	n/a	506.66025680024177	n/a	n/a	n/a	n/a	n/a	n/a	n/a	n/a	n/a	n/a	n/a	n/a	n/a	n/a	n/a	n/a	n/a	n/a	n/a	n/a	n/a	n/a	n/a	n/a	n/a	n/a	n/a	n/a	utils/practice/ScrambledFW_33M_NE_C.BMP	n/a	n/a	n/a	n/a	n/a	n/a	utils/practice/ScrambledBW_33M_NE_C.BMP	n/a	n/a	n/a	n/a	n/a	n/a	n/a	n/a	n/a	n/a	n/a	n/a	n/a	n/a	n/a	n/a	n/a	n/a	n/a	n/a	n/a	n/a	n/a	n/a	n/a	n/a	n/a	n/a	42	1	2023-03-14_11h08.45.655	test_final	2022.2.4	60.06485817809829	n/a
NimStim_Database/Images/11F_NE_C.BMP	utils/practice/ScrambledFW_37M_NE_C.BMP	utils/practice/ScrambledBW_37M_NE_C.BMP	utils/practice/real_prac16.jpg	utils/practice/fake_prac1.jpg	n/a	n/a	n/a	n/a	n/a	0.0	14.0	14.0	14.0	n/a	n/a	n/a	n/a	0.0	0.0	0.0	0.0	n/a	n/a	n/a	n/a	n/a	n/a	n/a	n/a	n/a	n/a	n/a	n/a	n/a	n/a	n/a	n/a	n/a	n/a	n/a	n/a	n/a	n/a	n/a	n/a	n/a	n/a	n/a	n/a	n/a	n/a	n/a	n/a	n/a	n/a	n/a	n/a	n/a	508.6748345000669	511.1740561001934	2.4899999999999896	n/a	n/a	n/a	n/a	n/a	n/a	n/a	n/a	n/a	n/a	n/a	n/a	n/a	n/a	n/a	n/a	n/a	n/a	n/a	n/a	n/a	n/a	n/a	n/a	n/a	n/a	n/a	511.1740561001934	511.3051366000436	511.3051366000436	511.3404564000666	511.3404564000666	511.40100370021537	511.40100370021537	511.40100370021537	511.40100370021537	511.40100370021537	511.40100370021537	511.40100370021537	None	512.137461700011	512.137461700011	space	1.743558599613607	n/a	n/a	n/a	n/a	n/a	n/a	n/a	utils/practice/ScrambledFW_37M_NE_C.BMP	n/a	n/a	n/a	n/a	n/a	n/a	utils/practice/ScrambledBW_37M_NE_C.BMP	n/a	n/a	n/a	n/a	n/a	n/a	n/a	n/a	n/a	n/a	n/a	n/a	n/a	n/a	n/a	n/a	n/a	n/a	n/a	n/a	n/a	n/a	n/a	n/a	n/a	n/a	n/a	n/a	42	1	2023-03-14_11h08.45.655	test_final	2022.2.4	60.06485817809829	n/a
NimStim_Database/Images/11F_NE_C.BMP	utils/practice/ScrambledFW_37M_NE_C.BMP	utils/practice/ScrambledBW_37M_NE_C.BMP	utils/practice/real_prac16.jpg	utils/practice/fake_prac1.jpg	n/a	n/a	n/a	n/a	n/a	0.0	14.0	14.0	14.0	n/a	n/a	n/a	n/a	n/a	n/a	n/a	n/a	n/a	n/a	n/a	n/a	n/a	n/a	n/a	n/a	n/a	n/a	n/a	n/a	n/a	n/a	n/a	n/a	n/a	n/a	n/a	n/a	n/a	n/a	n/a	n/a	n/a	n/a	n/a	n/a	n/a	n/a	n/a	n/a	n/a	n/a	n/a	n/a	n/a	n/a	n/a	n/a	n/a	n/a	n/a	n/a	n/a	n/a	n/a	n/a	n/a	n/a	n/a	n/a	n/a	n/a	n/a	n/a	n/a	n/a	n/a	n/a	n/a	n/a	513.9022729001008	n/a	n/a	n/a	n/a	n/a	n/a	n/a	n/a	n/a	n/a	n/a	n/a	n/a	n/a	n/a	n/a	n/a	n/a	n/a	n/a	n/a	n/a	n/a	n/a	n/a	n/a	n/a	n/a	utils/practice/ScrambledFW_37M_NE_C.BMP	n/a	n/a	n/a	n/a	n/a	n/a	utils/practice/ScrambledBW_37M_NE_C.BMP	n/a	n/a	n/a	n/a	n/a	n/a	n/a	n/a	n/a	n/a	n/a	n/a	n/a	n/a	n/a	n/a	n/a	n/a	n/a	n/a	n/a	n/a	n/a	n/a	n/a	n/a	n/a	n/a	42	1	2023-03-14_11h08.45.655	test_final	2022.2.4	60.06485817809829	n/a
NimStim_Database/Images/16F_NE_O.BMP	utils/practice/ScrambledFW_16F_NE_O.BMP	utils/practice/ScrambledBW_16F_NE_O.BMP	utils/practice/fake_prac6.jpg	utils/practice/fake_prac15.jpg	n/a	n/a	n/a	n/a	n/a	0.0	15.0	15.0	7.0	0.0	0.0	0.0	0.0	n/a	n/a	n/a	n/a	n/a	n/a	n/a	n/a	n/a	n/a	n/a	n/a	n/a	n/a	n/a	n/a	n/a	n/a	n/a	n/a	n/a	n/a	n/a	n/a	n/a	n/a	n/a	n/a	n/a	n/a	n/a	n/a	n/a	n/a	n/a	n/a	n/a	n/a	n/a	n/a	n/a	515.9167802999727	518.38270680001	2.45999999999999	n/a	n/a	n/a	n/a	n/a	n/a	n/a	n/a	n/a	n/a	n/a	n/a	n/a	n/a	n/a	n/a	n/a	n/a	n/a	n/a	n/a	n/a	n/a	n/a	n/a	n/a	n/a	518.38270680001	518.4996305000968	518.4996305000968	518.5325899003074	518.5325899003074	518.5908846003003	518.5908846003003	518.5908846003003	518.5908846003003	518.5908846003003	518.5908846003003	518.5908846003003	right	n/a	n/a	n/a	n/a	0.409513599704951	519.029957999941	n/a	n/a	n/a	n/a	n/a	utils/practice/ScrambledFW_16F_NE_O.BMP	n/a	n/a	n/a	n/a	n/a	n/a	utils/practice/ScrambledBW_16F_NE_O.BMP	n/a	n/a	n/a	n/a	n/a	n/a	n/a	n/a	n/a	n/a	n/a	n/a	n/a	n/a	n/a	n/a	n/a	n/a	n/a	n/a	n/a	n/a	n/a	n/a	n/a	n/a	n/a	n/a	42	1	2023-03-14_11h08.45.655	test_final	2022.2.4	60.06485817809829	n/a
NimStim_Database/Images/16F_NE_O.BMP	utils/practice/ScrambledFW_16F_NE_O.BMP	utils/practice/ScrambledBW_16F_NE_O.BMP	utils/practice/fake_prac6.jpg	utils/practice/fake_prac15.jpg	n/a	n/a	n/a	n/a	n/a	0.0	15.0	15.0	7.0	n/a	n/a	n/a	n/a	n/a	n/a	n/a	n/a	0.0	0.0	0.0	0.0	n/a	n/a	n/a	n/a	n/a	n/a	n/a	n/a	n/a	n/a	n/a	n/a	n/a	n/a	n/a	n/a	n/a	n/a	n/a	n/a	n/a	n/a	n/a	n/a	n/a	n/a	n/a	n/a	n/a	n/a	n/a	n/a	n/a	n/a	n/a	n/a	n/a	n/a	n/a	n/a	n/a	n/a	n/a	n/a	n/a	n/a	520.0452280002646	520.0452280002646	4.0	0.5347603000700474	520.611487200018	520.611487200018	520.611487200018	520.611487200018	520.611487200018	520.611487200018	4.0	0.2655324996449053	n/a	n/a	n/a	n/a	n/a	n/a	n/a	n/a	n/a	n/a	n/a	n/a	n/a	n/a	n/a	n/a	n/a	n/a	n/a	n/a	n/a	n/a	n/a	n/a	n/a	n/a	n/a	n/a	n/a	utils/practice/ScrambledFW_16F_NE_O.BMP	n/a	n/a	n/a	n/a	n/a	n/a	utils/practice/ScrambledBW_16F_NE_O.BMP	n/a	n/a	n/a	n/a	n/a	n/a	n/a	n/a	n/a	n/a	n/a	n/a	n/a	n/a	n/a	n/a	n/a	n/a	n/a	n/a	n/a	n/a	n/a	n/a	n/a	n/a	n/a	n/a	42	1	2023-03-14_11h08.45.655	test_final	2022.2.4	60.06485817809829	n/a
NimStim_Database/Images/16F_NE_O.BMP	utils/practice/ScrambledFW_16F_NE_O.BMP	utils/practice/ScrambledBW_16F_NE_O.BMP	utils/practice/fake_prac6.jpg	utils/practice/fake_prac15.jpg	n/a	n/a	n/a	n/a	n/a	0.0	15.0	15.0	7.0	n/a	n/a	n/a	n/a	n/a	n/a	n/a	n/a	n/a	n/a	n/a	n/a	n/a	n/a	n/a	n/a	n/a	n/a	n/a	n/a	n/a	n/a	n/a	n/a	n/a	n/a	n/a	n/a	n/a	n/a	n/a	n/a	n/a	n/a	n/a	n/a	n/a	n/a	n/a	n/a	n/a	n/a	n/a	n/a	n/a	n/a	n/a	n/a	n/a	n/a	n/a	n/a	n/a	n/a	n/a	n/a	n/a	n/a	n/a	n/a	n/a	n/a	n/a	n/a	n/a	n/a	n/a	n/a	n/a	n/a	520.894597500097	n/a	n/a	n/a	n/a	n/a	n/a	n/a	n/a	n/a	n/a	n/a	n/a	n/a	n/a	n/a	n/a	n/a	n/a	n/a	n/a	n/a	n/a	n/a	n/a	n/a	n/a	n/a	n/a	utils/practice/ScrambledFW_16F_NE_O.BMP	n/a	n/a	n/a	n/a	n/a	n/a	utils/practice/ScrambledBW_16F_NE_O.BMP	n/a	n/a	n/a	n/a	n/a	n/a	n/a	n/a	n/a	n/a	n/a	n/a	n/a	n/a	n/a	n/a	n/a	n/a	n/a	n/a	n/a	n/a	n/a	n/a	n/a	n/a	n/a	n/a	42	1	2023-03-14_11h08.45.655	test_final	2022.2.4	60.06485817809829	n/a
n/a	n/a	n/a	n/a	n/a	n/a	n/a	n/a	n/a	n/a	n/a	n/a	n/a	n/a	n/a	n/a	n/a	n/a	n/a	n/a	n/a	n/a	n/a	n/a	n/a	n/a	n/a	n/a	n/a	n/a	n/a	n/a	n/a	n/a	n/a	n/a	n/a	n/a	n/a	n/a	n/a	n/a	n/a	n/a	n/a	n/a	n/a	n/a	n/a	n/a	n/a	n/a	n/a	n/a	n/a	n/a	n/a	n/a	n/a	n/a	n/a	n/a	n/a	n/a	n/a	n/a	n/a	n/a	n/a	n/a	n/a	n/a	n/a	n/a	n/a	n/a	n/a	n/a	n/a	n/a	n/a	n/a	n/a	n/a	n/a	n/a	n/a	n/a	n/a	n/a	n/a	n/a	n/a	n/a	n/a	n/a	n/a	n/a	n/a	n/a	n/a	n/a	n/a	n/a	n/a	n/a	n/a	n/a	n/a	522.9087817003019	space	96.56758979987352	n/a	n/a	n/a	n/a	n/a	n/a	n/a	n/a	n/a	n/a	n/a	n/a	n/a	n/a	n/a	n/a	n/a	n/a	n/a	n/a	n/a	n/a	n/a	n/a	n/a	n/a	n/a	n/a	n/a	n/a	n/a	n/a	n/a	n/a	n/a	n/a	n/a	42	1	2023-03-14_11h08.45.655	test_final	2022.2.4	60.06485817809829	n/a
n/a	utils/nb_masks/NeuScrambledFW_05F_NE_O.BMP	utils/nb_masks/NeuScrambledBW_05F_NE_O.BMP	n/a	n/a	1.0	n/a	n/a	n/a	n/a	n/a	n/a	n/a	n/a	n/a	n/a	n/a	n/a	n/a	n/a	n/a	n/a	n/a	n/a	n/a	n/a	0.0	0.0	0.0	0.0	0.0	0.0	0.0	0.0	n/a	n/a	n/a	n/a	0.0	0.0	0.0	0.0	n/a	n/a	n/a	n/a	n/a	n/a	n/a	n/a	n/a	n/a	n/a	n/a	n/a	n/a	n/a	n/a	n/a	619.5027552000247	621.9001851002686	2.389999999999992	n/a	n/a	n/a	n/a	n/a	n/a	n/a	n/a	n/a	n/a	n/a	n/a	n/a	n/a	n/a	n/a	n/a	n/a	n/a	n/a	n/a	n/a	n/a	n/a	n/a	n/a	n/a	n/a	n/a	n/a	n/a	n/a	n/a	n/a	n/a	n/a	n/a	n/a	n/a	n/a	n/a	n/a	n/a	n/a	n/a	n/a	n/a	n/a	n/a	n/a	3.2996758818626404e-06	utils/nb_masks/NeuScrambledFW_05F_NE_O.BMP	0.1328275999985635	8.0	3.899913281202316e-06	0.0237904000096023	NimStim_Database/Images/05F_NE_O.BMP	3.200024366378784e-06	utils/nb_masks/NeuScrambledBW_05F_NE_O.BMP	0.0330560002475976	3.3997930586338043e-06	MR2_database/af03.tif	0.0003383997827768	622.9209424001165	622.9209424001165	space	1.1997621995396912	n/a	n/a	n/a	n/a	n/a	n/a	n/a	n/a	n/a	n/a	n/a	n/a	n/a	n/a	n/a	n/a	n/a	n/a	n/a	n/a	42	1	2023-03-14_11h08.45.655	test_final	2022.2.4	60.06485817809829	n/a
n/a	n/a	n/a	n/a	n/a	1.0	n/a	n/a	n/a	n/a	n/a	n/a	n/a	n/a	n/a	n/a	n/a	n/a	n/a	n/a	n/a	n/a	n/a	n/a	n/a	n/a	0.0	0.0	0.0	0.0	0.0	0.0	0.0	0.0	n/a	n/a	n/a	n/a	n/a	n/a	n/a	n/a	n/a	n/a	n/a	n/a	n/a	n/a	n/a	n/a	n/a	n/a	n/a	n/a	n/a	n/a	n/a	n/a	n/a	n/a	n/a	n/a	n/a	n/a	n/a	n/a	n/a	n/a	n/a	n/a	n/a	n/a	n/a	n/a	n/a	n/a	n/a	n/a	n/a	n/a	n/a	n/a	n/a	n/a	624.1478286003694	n/a	n/a	n/a	n/a	n/a	n/a	n/a	n/a	n/a	n/a	n/a	n/a	n/a	n/a	n/a	n/a	n/a	n/a	n/a	n/a	n/a	n/a	n/a	n/a	n/a	n/a	n/a	n/a	n/a	n/a	n/a	n/a	n/a	n/a	n/a	n/a	n/a	n/a	n/a	n/a	n/a	n/a	n/a	n/a	n/a	n/a	n/a	n/a	n/a	n/a	n/a	n/a	n/a	n/a	n/a	n/a	n/a	n/a	n/a	n/a	n/a	n/a	n/a	n/a	42	1	2023-03-14_11h08.45.655	test_final	2022.2.4	60.06485817809829	n/a
n/a	utils/nb_masks/EmoScrambledFW_01F_AN_O.BMP	utils/nb_masks/EmoScrambledBW_01F_AN_O.BMP	n/a	n/a	1.0	n/a	n/a	n/a	n/a	n/a	n/a	n/a	n/a	n/a	n/a	n/a	n/a	n/a	n/a	n/a	n/a	n/a	n/a	n/a	n/a	0.0	0.0	0.0	0.0	1.0	0.0	1.0	0.0	0.0	0.0	0.0	0.0	n/a	n/a	n/a	n/a	n/a	n/a	n/a	n/a	n/a	n/a	n/a	n/a	n/a	n/a	n/a	n/a	n/a	n/a	n/a	n/a	n/a	626.162159500178	628.4428587001748	2.279999999999994	n/a	n/a	n/a	n/a	n/a	n/a	n/a	n/a	n/a	n/a	n/a	n/a	n/a	n/a	n/a	n/a	n/a	n/a	n/a	n/a	n/a	n/a	n/a	n/a	n/a	n/a	n/a	n/a	n/a	n/a	n/a	n/a	n/a	n/a	n/a	n/a	n/a	n/a	n/a	n/a	n/a	n/a	n/a	n/a	n/a	n/a	n/a	n/a	n/a	n/a	3.899913281202316e-06	utils/nb_masks/EmoScrambledFW_01F_AN_O.BMP	0.1660966002382338	10.0	3.700144588947296e-06	0.0322377001866698	utils/no_prime.png	3.200024366378784e-06	utils/nb_masks/EmoScrambledBW_01F_AN_O.BMP	0.0329368999227881	3.899913281202316e-06	MR2_database/af12.tif	0.0005172998644411	n/a	n/a	n/a	n/a	right	0.5039230003021657	629.2241556001827	630.2241640002467	n/a	n/a	n/a	n/a	n/a	n/a	n/a	n/a	n/a	n/a	n/a	n/a	n/a	n/a	n/a	n/a	42	1	2023-03-14_11h08.45.655	test_final	2022.2.4	60.06485817809829	n/a
n/a	n/a	n/a	n/a	n/a	1.0	n/a	n/a	n/a	n/a	n/a	n/a	n/a	n/a	n/a	n/a	n/a	n/a	n/a	n/a	n/a	n/a	n/a	n/a	n/a	n/a	0.0	0.0	0.0	0.0	1.0	0.0	1.0	0.0	n/a	n/a	n/a	n/a	n/a	n/a	n/a	n/a	0.0	0.0	0.0	0.0	n/a	n/a	n/a	n/a	n/a	n/a	n/a	n/a	n/a	n/a	n/a	n/a	n/a	n/a	n/a	n/a	n/a	n/a	n/a	n/a	n/a	n/a	n/a	n/a	n/a	n/a	630.2241640002467	630.2241640002467	4.0	2.21217929944396	632.4550485000946	632.4550485000946	632.4550485000946	632.4550485000946	632.4550485000946	632.4550485000946	4.0	0.868391599971801	n/a	n/a	n/a	n/a	n/a	n/a	n/a	n/a	n/a	n/a	n/a	n/a	n/a	n/a	n/a	n/a	n/a	n/a	n/a	n/a	n/a	n/a	n/a	n/a	n/a	n/a	n/a	n/a	n/a	n/a	n/a	n/a	n/a	n/a	n/a	n/a	n/a	n/a	n/a	n/a	n/a	n/a	n/a	n/a	n/a	n/a	n/a	n/a	n/a	n/a	n/a	n/a	n/a	n/a	n/a	n/a	n/a	n/a	n/a	n/a	n/a	n/a	n/a	n/a	n/a	42	1	2023-03-14_11h08.45.655	test_final	2022.2.4	60.06485817809829	n/a
n/a	n/a	n/a	n/a	n/a	1.0	n/a	n/a	n/a	n/a	n/a	n/a	n/a	n/a	n/a	n/a	n/a	n/a	n/a	n/a	n/a	n/a	n/a	n/a	n/a	n/a	0.0	0.0	0.0	0.0	1.0	0.0	1.0	0.0	n/a	n/a	n/a	n/a	n/a	n/a	n/a	n/a	n/a	n/a	n/a	n/a	n/a	n/a	n/a	n/a	n/a	n/a	n/a	n/a	n/a	n/a	n/a	n/a	n/a	n/a	n/a	n/a	n/a	n/a	n/a	n/a	n/a	n/a	n/a	n/a	n/a	n/a	n/a	n/a	n/a	n/a	n/a	n/a	n/a	n/a	n/a	n/a	n/a	n/a	633.354115600232	n/a	n/a	n/a	n/a	n/a	n/a	n/a	n/a	n/a	n/a	n/a	n/a	n/a	n/a	n/a	n/a	n/a	n/a	n/a	n/a	n/a	n/a	n/a	n/a	n/a	n/a	n/a	n/a	n/a	n/a	n/a	n/a	n/a	n/a	n/a	n/a	n/a	n/a	n/a	n/a	n/a	n/a	n/a	n/a	n/a	n/a	n/a	n/a	n/a	n/a	n/a	n/a	n/a	n/a	n/a	n/a	n/a	n/a	n/a	n/a	n/a	n/a	n/a	n/a	42	1	2023-03-14_11h08.45.655	test_final	2022.2.4	60.06485817809829	n/a
n/a	utils/nb_masks/EmoScrambledFW_03F_AN_O.BMP	utils/nb_masks/EmoScrambledBW_03F_AN_O.BMP	n/a	n/a	1.0	n/a	n/a	n/a	n/a	n/a	n/a	n/a	n/a	n/a	n/a	n/a	n/a	n/a	n/a	n/a	n/a	n/a	n/a	n/a	n/a	0.0	0.0	0.0	0.0	2.0	0.0	2.0	0.0	0.0	0.0	0.0	0.0	n/a	n/a	n/a	n/a	n/a	n/a	n/a	n/a	n/a	n/a	n/a	n/a	n/a	n/a	n/a	n/a	n/a	n/a	n/a	n/a	n/a	635.368739400059	637.8491366002709	2.46999999999999	n/a	n/a	n/a	n/a	n/a	n/a	n/a	n/a	n/a	n/a	n/a	n/a	n/a	n/a	n/a	n/a	n/a	n/a	n/a	n/a	n/a	n/a	n/a	n/a	n/a	n/a	n/a	n/a	n/a	n/a	n/a	n/a	n/a	n/a	n/a	n/a	n/a	n/a	n/a	n/a	n/a	n/a	n/a	n/a	n/a	n/a	n/a	n/a	n/a	n/a	3.80026176571846e-06	utils/nb_masks/EmoScrambledFW_03F_AN_O.BMP	0.1498785000294447	9.0	3.900378942489624e-06	0.0318412999622523	NimStim_Database/Images/03F_AN_O.BMP	3.600027412176132e-06	utils/nb_masks/EmoScrambledBW_03F_AN_O.BMP	0.0330688003450632	4.100147634744644e-06	MR2_database/bf17.tif	0.000486500095576	n/a	n/a	n/a	n/a	right	0.5853781998157501	638.7004690999165	n/a	n/a	n/a	n/a	n/a	n/a	n/a	n/a	n/a	n/a	n/a	n/a	n/a	n/a	n/a	n/a	n/a	42	1	2023-03-14_11h08.45.655	test_final	2022.2.4	60.06485817809829	n/a
n/a	n/a	n/a	n/a	n/a	1.0	n/a	n/a	n/a	n/a	n/a	n/a	n/a	n/a	n/a	n/a	n/a	n/a	n/a	n/a	n/a	n/a	n/a	n/a	n/a	n/a	0.0	0.0	0.0	0.0	2.0	0.0	2.0	0.0	n/a	n/a	n/a	n/a	n/a	n/a	n/a	n/a	0.0	0.0	0.0	0.0	n/a	n/a	n/a	n/a	n/a	n/a	n/a	n/a	n/a	n/a	n/a	n/a	n/a	n/a	n/a	n/a	n/a	n/a	n/a	n/a	n/a	n/a	n/a	n/a	n/a	n/a	639.7139690001495	639.7139690001495	4.0	0.4639342995360493	640.1967987003736	640.1967987003736	640.1967987003736	640.1967987003736	640.1967987003736	640.1967987003736	4.0	0.3768180995248258	n/a	n/a	n/a	n/a	n/a	n/a	n/a	n/a	n/a	n/a	n/a	n/a	n/a	n/a	n/a	n/a	n/a	n/a	n/a	n/a	n/a	n/a	n/a	n/a	n/a	n/a	n/a	n/a	n/a	n/a	n/a	n/a	n/a	n/a	n/a	n/a	n/a	n/a	n/a	n/a	n/a	n/a	n/a	n/a	n/a	n/a	n/a	n/a	n/a	n/a	n/a	n/a	n/a	n/a	n/a	n/a	n/a	n/a	n/a	n/a	n/a	n/a	n/a	n/a	n/a	42	1	2023-03-14_11h08.45.655	test_final	2022.2.4	60.06485817809829	n/a
n/a	n/a	n/a	n/a	n/a	1.0	n/a	n/a	n/a	n/a	n/a	n/a	n/a	n/a	n/a	n/a	n/a	n/a	n/a	n/a	n/a	n/a	n/a	n/a	n/a	n/a	0.0	0.0	0.0	0.0	2.0	0.0	2.0	0.0	n/a	n/a	n/a	n/a	n/a	n/a	n/a	n/a	n/a	n/a	n/a	n/a	n/a	n/a	n/a	n/a	n/a	n/a	n/a	n/a	n/a	n/a	n/a	n/a	n/a	n/a	n/a	n/a	n/a	n/a	n/a	n/a	n/a	n/a	n/a	n/a	n/a	n/a	n/a	n/a	n/a	n/a	n/a	n/a	n/a	n/a	n/a	n/a	n/a	n/a	640.5962514001876	n/a	n/a	n/a	n/a	n/a	n/a	n/a	n/a	n/a	n/a	n/a	n/a	n/a	n/a	n/a	n/a	n/a	n/a	n/a	n/a	n/a	n/a	n/a	n/a	n/a	n/a	n/a	n/a	n/a	n/a	n/a	n/a	n/a	n/a	n/a	n/a	n/a	n/a	n/a	n/a	n/a	n/a	n/a	n/a	n/a	n/a	n/a	n/a	n/a	n/a	n/a	n/a	n/a	n/a	n/a	n/a	n/a	n/a	n/a	n/a	n/a	n/a	n/a	n/a	42	1	2023-03-14_11h08.45.655	test_final	2022.2.4	60.06485817809829	n/a
n/a	utils/nb_masks/NeuScrambledFW_26M_NE_C.BMP	utils/nb_masks/NeuScrambledBW_26M_NE_C.BMP	n/a	n/a	1.0	n/a	n/a	n/a	n/a	n/a	n/a	n/a	n/a	n/a	n/a	n/a	n/a	n/a	n/a	n/a	n/a	n/a	n/a	n/a	n/a	0.0	0.0	0.0	0.0	3.0	0.0	3.0	0.0	0.0	0.0	0.0	0.0	n/a	n/a	n/a	n/a	n/a	n/a	n/a	n/a	n/a	n/a	n/a	n/a	n/a	n/a	n/a	n/a	n/a	n/a	n/a	n/a	n/a	642.6105353999883	644.8747629001737	2.2499999999999947	n/a	n/a	n/a	n/a	n/a	n/a	n/a	n/a	n/a	n/a	n/a	n/a	n/a	n/a	n/a	n/a	n/a	n/a	n/a	n/a	n/a	n/a	n/a	n/a	n/a	n/a	n/a	n/a	n/a	n/a	n/a	n/a	n/a	n/a	n/a	n/a	n/a	n/a	n/a	n/a	n/a	n/a	n/a	n/a	n/a	n/a	n/a	n/a	n/a	n/a	3.900378942489624e-06	utils/nb_masks/NeuScrambledFW_26M_NE_C.BMP	0.1665628002956509	10.0	3.80026176571846e-06	0.0320685999467968	utils/no_prime.png	3.200024366378784e-06	utils/nb_masks/NeuScrambledBW_26M_NE_C.BMP	0.0330759002827107	4.299916326999664e-06	MR2_database/bf03.tif	0.0004833997227251	n/a	n/a	n/a	n/a	right	0.6113872998394072	645.7719467002898	646.7727025002241	n/a	n/a	n/a	n/a	n/a	n/a	n/a	n/a	n/a	n/a	n/a	n/a	n/a	n/a	n/a	n/a	42	1	2023-03-14_11h08.45.655	test_final	2022.2.4	60.06485817809829	n/a
n/a	n/a	n/a	n/a	n/a	1.0	n/a	n/a	n/a	n/a	n/a	n/a	n/a	n/a	n/a	n/a	n/a	n/a	n/a	n/a	n/a	n/a	n/a	n/a	n/a	n/a	0.0	0.0	0.0	0.0	3.0	0.0	3.0	0.0	n/a	n/a	n/a	n/a	n/a	n/a	n/a	n/a	0.0	0.0	0.0	0.0	n/a	n/a	n/a	n/a	n/a	n/a	n/a	n/a	n/a	n/a	n/a	n/a	n/a	n/a	n/a	n/a	n/a	n/a	n/a	n/a	n/a	n/a	n/a	n/a	n/a	n/a	646.7727025002241	646.7727025002241	4.0	0.2460268996655941	647.0393218002282	647.0393218002282	647.0393218002282	647.0393218002282	647.0393218002282	647.0393218002282	4.0	0.3076257999055087	n/a	n/a	n/a	n/a	n/a	n/a	n/a	n/a	n/a	n/a	n/a	n/a	n/a	n/a	n/a	n/a	n/a	n/a	n/a	n/a	n/a	n/a	n/a	n/a	n/a	n/a	n/a	n/a	n/a	n/a	n/a	n/a	n/a	n/a	n/a	n/a	n/a	n/a	n/a	n/a	n/a	n/a	n/a	n/a	n/a	n/a	n/a	n/a	n/a	n/a	n/a	n/a	n/a	n/a	n/a	n/a	n/a	n/a	n/a	n/a	n/a	n/a	n/a	n/a	n/a	42	1	2023-03-14_11h08.45.655	test_final	2022.2.4	60.06485817809829	n/a
n/a	n/a	n/a	n/a	n/a	1.0	n/a	n/a	n/a	n/a	n/a	n/a	n/a	n/a	n/a	n/a	n/a	n/a	n/a	n/a	n/a	n/a	n/a	n/a	n/a	n/a	0.0	0.0	0.0	0.0	3.0	0.0	3.0	0.0	n/a	n/a	n/a	n/a	n/a	n/a	n/a	n/a	n/a	n/a	n/a	n/a	n/a	n/a	n/a	n/a	n/a	n/a	n/a	n/a	n/a	n/a	n/a	n/a	n/a	n/a	n/a	n/a	n/a	n/a	n/a	n/a	n/a	n/a	n/a	n/a	n/a	n/a	n/a	n/a	n/a	n/a	n/a	n/a	n/a	n/a	n/a	n/a	n/a	n/a	647.3721798001789	n/a	n/a	n/a	n/a	n/a	n/a	n/a	n/a	n/a	n/a	n/a	n/a	n/a	n/a	n/a	n/a	n/a	n/a	n/a	n/a	n/a	n/a	n/a	n/a	n/a	n/a	n/a	n/a	n/a	n/a	n/a	n/a	n/a	n/a	n/a	n/a	n/a	n/a	n/a	n/a	n/a	n/a	n/a	n/a	n/a	n/a	n/a	n/a	n/a	n/a	n/a	n/a	n/a	n/a	n/a	n/a	n/a	n/a	n/a	n/a	n/a	n/a	n/a	n/a	42	1	2023-03-14_11h08.45.655	test_final	2022.2.4	60.06485817809829	n/a
n/a	utils/nb_masks/NeuScrambledFW_41M_NE_O.BMP	utils/nb_masks/NeuScrambledBW_41M_NE_O.BMP	n/a	n/a	1.0	n/a	n/a	n/a	n/a	n/a	n/a	n/a	n/a	n/a	n/a	n/a	n/a	n/a	n/a	n/a	n/a	n/a	n/a	n/a	n/a	0.0	0.0	0.0	0.0	4.0	0.0	4.0	0.0	0.0	0.0	0.0	0.0	n/a	n/a	n/a	n/a	n/a	n/a	n/a	n/a	n/a	n/a	n/a	n/a	n/a	n/a	n/a	n/a	n/a	n/a	n/a	n/a	n/a	649.3866256000474	651.7673610001802	2.369999999999992	n/a	n/a	n/a	n/a	n/a	n/a	n/a	n/a	n/a	n/a	n/a	n/a	n/a	n/a	n/a	n/a	n/a	n/a	n/a	n/a	n/a	n/a	n/a	n/a	n/a	n/a	n/a	n/a	n/a	n/a	n/a	n/a	n/a	n/a	n/a	n/a	n/a	n/a	n/a	n/a	n/a	n/a	n/a	n/a	n/a	n/a	n/a	n/a	n/a	n/a	3.899913281202316e-06	utils/nb_masks/NeuScrambledFW_41M_NE_O.BMP	0.1160822999663651	7.0	3.699678927659989e-06	0.0321617997251451	utils/no_prime.png	3.4999102354049683e-06	utils/nb_masks/NeuScrambledBW_41M_NE_O.BMP	0.0331720998510718	4.1997991502285e-06	MR2_database/wm09.tif	0.0004865997470915	n/a	n/a	n/a	n/a	right	0.5028487001545727	652.491840899922	653.498755000066	n/a	n/a	n/a	n/a	n/a	n/a	n/a	n/a	n/a	n/a	n/a	n/a	n/a	n/a	n/a	n/a	42	1	2023-03-14_11h08.45.655	test_final	2022.2.4	60.06485817809829	n/a
n/a	n/a	n/a	n/a	n/a	1.0	n/a	n/a	n/a	n/a	n/a	n/a	n/a	n/a	n/a	n/a	n/a	n/a	n/a	n/a	n/a	n/a	n/a	n/a	n/a	n/a	0.0	0.0	0.0	0.0	4.0	0.0	4.0	0.0	n/a	n/a	n/a	n/a	n/a	n/a	n/a	n/a	0.0	0.0	0.0	0.0	n/a	n/a	n/a	n/a	n/a	n/a	n/a	n/a	n/a	n/a	n/a	n/a	n/a	n/a	n/a	n/a	n/a	n/a	n/a	n/a	n/a	n/a	n/a	n/a	n/a	n/a	653.498755000066	653.498755000066	4.0	0.0382469994947314	653.5653934003785	653.5653934003785	653.5653934003785	653.5653934003785	653.5653934003785	653.5653934003785	1.0	0.7410306995734572	n/a	n/a	n/a	n/a	n/a	n/a	n/a	n/a	n/a	n/a	n/a	n/a	n/a	n/a	n/a	n/a	n/a	n/a	n/a	n/a	n/a	n/a	n/a	n/a	n/a	n/a	n/a	n/a	n/a	n/a	n/a	n/a	n/a	n/a	n/a	n/a	n/a	n/a	n/a	n/a	n/a	n/a	n/a	n/a	n/a	n/a	n/a	n/a	n/a	n/a	n/a	n/a	n/a	n/a	n/a	n/a	n/a	n/a	n/a	n/a	n/a	n/a	n/a	n/a	n/a	42	1	2023-03-14_11h08.45.655	test_final	2022.2.4	60.06485817809829	n/a
n/a	n/a	n/a	n/a	n/a	1.0	n/a	n/a	n/a	n/a	n/a	n/a	n/a	n/a	n/a	n/a	n/a	n/a	n/a	n/a	n/a	n/a	n/a	n/a	n/a	n/a	0.0	0.0	0.0	0.0	4.0	0.0	4.0	0.0	n/a	n/a	n/a	n/a	n/a	n/a	n/a	n/a	n/a	n/a	n/a	n/a	n/a	n/a	n/a	n/a	n/a	n/a	n/a	n/a	n/a	n/a	n/a	n/a	n/a	n/a	n/a	n/a	n/a	n/a	n/a	n/a	n/a	n/a	n/a	n/a	n/a	n/a	n/a	n/a	n/a	n/a	n/a	n/a	n/a	n/a	n/a	n/a	n/a	n/a	654.3311215001158	n/a	n/a	n/a	n/a	n/a	n/a	n/a	n/a	n/a	n/a	n/a	n/a	n/a	n/a	n/a	n/a	n/a	n/a	n/a	n/a	n/a	n/a	n/a	n/a	n/a	n/a	n/a	n/a	n/a	n/a	n/a	n/a	n/a	n/a	n/a	n/a	n/a	n/a	n/a	n/a	n/a	n/a	n/a	n/a	n/a	n/a	n/a	n/a	n/a	n/a	n/a	n/a	n/a	n/a	n/a	n/a	n/a	n/a	n/a	n/a	n/a	n/a	n/a	n/a	42	1	2023-03-14_11h08.45.655	test_final	2022.2.4	60.06485817809829	n/a
n/a	utils/nb_masks/NeuScrambledFW_14F_NE_C.BMP	utils/nb_masks/NeuScrambledBW_14F_NE_C.BMP	n/a	n/a	1.0	n/a	n/a	n/a	n/a	n/a	n/a	n/a	n/a	n/a	n/a	n/a	n/a	n/a	n/a	n/a	n/a	n/a	n/a	n/a	n/a	0.0	0.0	0.0	0.0	5.0	0.0	5.0	0.0	0.0	0.0	0.0	0.0	n/a	n/a	n/a	n/a	n/a	n/a	n/a	n/a	n/a	n/a	n/a	n/a	n/a	n/a	n/a	n/a	n/a	n/a	n/a	n/a	n/a	656.3457343000919	658.6597604001872	2.2999999999999936	n/a	n/a	n/a	n/a	n/a	n/a	n/a	n/a	n/a	n/a	n/a	n/a	n/a	n/a	n/a	n/a	n/a	n/a	n/a	n/a	n/a	n/a	n/a	n/a	n/a	n/a	n/a	n/a	n/a	n/a	n/a	n/a	n/a	n/a	n/a	n/a	n/a	n/a	n/a	n/a	n/a	n/a	n/a	n/a	n/a	n/a	n/a	n/a	n/a	n/a	4.00003045797348e-06	utils/nb_masks/NeuScrambledFW_14F_NE_C.BMP	0.165971599984914	10.0	4.500150680541992e-06	0.0320230000652372	NimStim_Database/Images/14F_NE_C.BMP	3.3997930586338043e-06	utils/nb_masks/NeuScrambledBW_14F_NE_C.BMP	0.0330791999585926	4.400033503770828e-06	MR2_database/wm05.tif	0.0004837997257709	n/a	n/a	n/a	n/a	right	0.4587238999083638	659.3985083000734	660.40790390037	n/a	n/a	n/a	n/a	n/a	n/a	n/a	n/a	n/a	n/a	n/a	n/a	n/a	n/a	n/a	n/a	42	1	2023-03-14_11h08.45.655	test_final	2022.2.4	60.06485817809829	n/a
n/a	n/a	n/a	n/a	n/a	1.0	n/a	n/a	n/a	n/a	n/a	n/a	n/a	n/a	n/a	n/a	n/a	n/a	n/a	n/a	n/a	n/a	n/a	n/a	n/a	n/a	0.0	0.0	0.0	0.0	5.0	0.0	5.0	0.0	n/a	n/a	n/a	n/a	n/a	n/a	n/a	n/a	0.0	0.0	0.0	0.0	n/a	n/a	n/a	n/a	n/a	n/a	n/a	n/a	n/a	n/a	n/a	n/a	n/a	n/a	n/a	n/a	n/a	n/a	n/a	n/a	n/a	n/a	n/a	n/a	n/a	n/a	660.40790390037	660.40790390037	4.0	0.5560881998389959	660.9905394003727	660.9905394003727	660.9905394003727	660.9905394003727	660.9905394003727	660.9905394003727	1.0	0.3834224999882281	n/a	n/a	n/a	n/a	n/a	n/a	n/a	n/a	n/a	n/a	n/a	n/a	n/a	n/a	n/a	n/a	n/a	n/a	n/a	n/a	n/a	n/a	n/a	n/a	n/a	n/a	n/a	n/a	n/a	n/a	n/a	n/a	n/a	n/a	n/a	n/a	n/a	n/a	n/a	n/a	n/a	n/a	n/a	n/a	n/a	n/a	n/a	n/a	n/a	n/a	n/a	n/a	n/a	n/a	n/a	n/a	n/a	n/a	n/a	n/a	n/a	n/a	n/a	n/a	n/a	42	1	2023-03-14_11h08.45.655	test_final	2022.2.4	60.06485817809829	n/a
n/a	n/a	n/a	n/a	n/a	1.0	n/a	n/a	n/a	n/a	n/a	n/a	n/a	n/a	n/a	n/a	n/a	n/a	n/a	n/a	n/a	n/a	n/a	n/a	n/a	n/a	0.0	0.0	0.0	0.0	5.0	0.0	5.0	0.0	n/a	n/a	n/a	n/a	n/a	n/a	n/a	n/a	n/a	n/a	n/a	n/a	n/a	n/a	n/a	n/a	n/a	n/a	n/a	n/a	n/a	n/a	n/a	n/a	n/a	n/a	n/a	n/a	n/a	n/a	n/a	n/a	n/a	n/a	n/a	n/a	n/a	n/a	n/a	n/a	n/a	n/a	n/a	n/a	n/a	n/a	n/a	n/a	n/a	n/a	661.4068877003156	n/a	n/a	n/a	n/a	n/a	n/a	n/a	n/a	n/a	n/a	n/a	n/a	n/a	n/a	n/a	n/a	n/a	n/a	n/a	n/a	n/a	n/a	n/a	n/a	n/a	n/a	n/a	n/a	n/a	n/a	n/a	n/a	n/a	n/a	n/a	n/a	n/a	n/a	n/a	n/a	n/a	n/a	n/a	n/a	n/a	n/a	n/a	n/a	n/a	n/a	n/a	n/a	n/a	n/a	n/a	n/a	n/a	n/a	n/a	n/a	n/a	n/a	n/a	n/a	42	1	2023-03-14_11h08.45.655	test_final	2022.2.4	60.06485817809829	n/a
n/a	utils/nb_masks/NeuScrambledFW_03F_NE_O.BMP	utils/nb_masks/NeuScrambledBW_03F_NE_O.BMP	n/a	n/a	1.0	n/a	n/a	n/a	n/a	n/a	n/a	n/a	n/a	n/a	n/a	n/a	n/a	n/a	n/a	n/a	n/a	n/a	n/a	n/a	n/a	0.0	0.0	0.0	0.0	6.0	0.0	6.0	0.0	0.0	0.0	0.0	0.0	n/a	n/a	n/a	n/a	n/a	n/a	n/a	n/a	n/a	n/a	n/a	n/a	n/a	n/a	n/a	n/a	n/a	n/a	n/a	n/a	n/a	663.4212525999174	665.8017319999635	2.379999999999992	n/a	n/a	n/a	n/a	n/a	n/a	n/a	n/a	n/a	n/a	n/a	n/a	n/a	n/a	n/a	n/a	n/a	n/a	n/a	n/a	n/a	n/a	n/a	n/a	n/a	n/a	n/a	n/a	n/a	n/a	n/a	n/a	n/a	n/a	n/a	n/a	n/a	n/a	n/a	n/a	n/a	n/a	n/a	n/a	n/a	n/a	n/a	n/a	n/a	n/a	4.00003045797348e-06	utils/nb_masks/NeuScrambledFW_03F_NE_O.BMP	0.0996527997776866	6.0	4.099681973457336e-06	0.0319460998289287	utils/no_prime.png	3.3997930586338043e-06	utils/nb_masks/NeuScrambledBW_03F_NE_O.BMP	0.0331335999071598	3.80026176571846e-06	MR2_database/af08.tif	0.0004874998703598	n/a	n/a	n/a	n/a	right	0.4836695999838412	666.5024613002315	n/a	n/a	n/a	n/a	n/a	n/a	n/a	n/a	n/a	n/a	n/a	n/a	n/a	n/a	n/a	n/a	n/a	42	1	2023-03-14_11h08.45.655	test_final	2022.2.4	60.06485817809829	n/a
n/a	n/a	n/a	n/a	n/a	1.0	n/a	n/a	n/a	n/a	n/a	n/a	n/a	n/a	n/a	n/a	n/a	n/a	n/a	n/a	n/a	n/a	n/a	n/a	n/a	n/a	0.0	0.0	0.0	0.0	6.0	0.0	6.0	0.0	n/a	n/a	n/a	n/a	n/a	n/a	n/a	n/a	0.0	0.0	0.0	0.0	n/a	n/a	n/a	n/a	n/a	n/a	n/a	n/a	n/a	n/a	n/a	n/a	n/a	n/a	n/a	n/a	n/a	n/a	n/a	n/a	n/a	n/a	n/a	n/a	n/a	n/a	667.5164707000367	667.5164707000367	4.0	0.320834799669683	667.8661013999954	667.8661013999954	667.8661013999954	667.8661013999954	667.8661013999954	667.8661013999954	4.0	0.1927285995334386	n/a	n/a	n/a	n/a	n/a	n/a	n/a	n/a	n/a	n/a	n/a	n/a	n/a	n/a	n/a	n/a	n/a	n/a	n/a	n/a	n/a	n/a	n/a	n/a	n/a	n/a	n/a	n/a	n/a	n/a	n/a	n/a	n/a	n/a	n/a	n/a	n/a	n/a	n/a	n/a	n/a	n/a	n/a	n/a	n/a	n/a	n/a	n/a	n/a	n/a	n/a	n/a	n/a	n/a	n/a	n/a	n/a	n/a	n/a	n/a	n/a	n/a	n/a	n/a	n/a	42	1	2023-03-14_11h08.45.655	test_final	2022.2.4	60.06485817809829	n/a
n/a	n/a	n/a	n/a	n/a	1.0	n/a	n/a	n/a	n/a	n/a	n/a	n/a	n/a	n/a	n/a	n/a	n/a	n/a	n/a	n/a	n/a	n/a	n/a	n/a	n/a	0.0	0.0	0.0	0.0	6.0	0.0	6.0	0.0	n/a	n/a	n/a	n/a	n/a	n/a	n/a	n/a	n/a	n/a	n/a	n/a	n/a	n/a	n/a	n/a	n/a	n/a	n/a	n/a	n/a	n/a	n/a	n/a	n/a	n/a	n/a	n/a	n/a	n/a	n/a	n/a	n/a	n/a	n/a	n/a	n/a	n/a	n/a	n/a	n/a	n/a	n/a	n/a	n/a	n/a	n/a	n/a	n/a	n/a	668.0825588000007	n/a	n/a	n/a	n/a	n/a	n/a	n/a	n/a	n/a	n/a	n/a	n/a	n/a	n/a	n/a	n/a	n/a	n/a	n/a	n/a	n/a	n/a	n/a	n/a	n/a	n/a	n/a	n/a	n/a	n/a	n/a	n/a	n/a	n/a	n/a	n/a	n/a	n/a	n/a	n/a	n/a	n/a	n/a	n/a	n/a	n/a	n/a	n/a	n/a	n/a	n/a	n/a	n/a	n/a	n/a	n/a	n/a	n/a	n/a	n/a	n/a	n/a	n/a	n/a	42	1	2023-03-14_11h08.45.655	test_final	2022.2.4	60.06485817809829	n/a
n/a	utils/nb_masks/EmoScrambledFW_34M_AN_C.BMP	utils/nb_masks/EmoScrambledBW_34M_AN_C.BMP	n/a	n/a	1.0	n/a	n/a	n/a	n/a	n/a	n/a	n/a	n/a	n/a	n/a	n/a	n/a	n/a	n/a	n/a	n/a	n/a	n/a	n/a	n/a	0.0	0.0	0.0	0.0	7.0	0.0	7.0	0.0	0.0	0.0	0.0	0.0	n/a	n/a	n/a	n/a	n/a	n/a	n/a	n/a	n/a	n/a	n/a	n/a	n/a	n/a	n/a	n/a	n/a	n/a	n/a	n/a	n/a	670.0972251002677	672.1782203000039	2.0799999999999983	n/a	n/a	n/a	n/a	n/a	n/a	n/a	n/a	n/a	n/a	n/a	n/a	n/a	n/a	n/a	n/a	n/a	n/a	n/a	n/a	n/a	n/a	n/a	n/a	n/a	n/a	n/a	n/a	n/a	n/a	n/a	n/a	n/a	n/a	n/a	n/a	n/a	n/a	n/a	n/a	n/a	n/a	n/a	n/a	n/a	n/a	n/a	n/a	n/a	n/a	3.900378942489624e-06	utils/nb_masks/EmoScrambledFW_34M_AN_C.BMP	0.1495817000977695	9.0	3.799796104431152e-06	0.0319178998470306	NimStim_Database/Images/34M_AN_C.BMP	3.3997930586338043e-06	utils/nb_masks/EmoScrambledBW_34M_AN_C.BMP	0.0328609999269247	4.1997991502285e-06	MR2_database/bf10.tif	0.0004412000998854	n/a	n/a	n/a	n/a	right	0.383560299873352	672.8236877000891	673.826308300253	n/a	n/a	n/a	n/a	n/a	n/a	n/a	n/a	n/a	n/a	n/a	n/a	n/a	n/a	n/a	n/a	42	1	2023-03-14_11h08.45.655	test_final	2022.2.4	60.06485817809829	n/a
n/a	n/a	n/a	n/a	n/a	1.0	n/a	n/a	n/a	n/a	n/a	n/a	n/a	n/a	n/a	n/a	n/a	n/a	n/a	n/a	n/a	n/a	n/a	n/a	n/a	n/a	0.0	0.0	0.0	0.0	7.0	0.0	7.0	0.0	n/a	n/a	n/a	n/a	n/a	n/a	n/a	n/a	0.0	0.0	0.0	0.0	n/a	n/a	n/a	n/a	n/a	n/a	n/a	n/a	n/a	n/a	n/a	n/a	n/a	n/a	n/a	n/a	n/a	n/a	n/a	n/a	n/a	n/a	n/a	n/a	n/a	n/a	673.826308300253	673.826308300253	4.0	0.1819829996675253	674.0259308000095	674.0259308000095	674.0259308000095	674.0259308000095	674.0259308000095	674.0259308000095	4.0	0.1814541993662715	n/a	n/a	n/a	n/a	n/a	n/a	n/a	n/a	n/a	n/a	n/a	n/a	n/a	n/a	n/a	n/a	n/a	n/a	n/a	n/a	n/a	n/a	n/a	n/a	n/a	n/a	n/a	n/a	n/a	n/a	n/a	n/a	n/a	n/a	n/a	n/a	n/a	n/a	n/a	n/a	n/a	n/a	n/a	n/a	n/a	n/a	n/a	n/a	n/a	n/a	n/a	n/a	n/a	n/a	n/a	n/a	n/a	n/a	n/a	n/a	n/a	n/a	n/a	n/a	n/a	42	1	2023-03-14_11h08.45.655	test_final	2022.2.4	60.06485817809829	n/a
n/a	n/a	n/a	n/a	n/a	1.0	n/a	n/a	n/a	n/a	n/a	n/a	n/a	n/a	n/a	n/a	n/a	n/a	n/a	n/a	n/a	n/a	n/a	n/a	n/a	n/a	0.0	0.0	0.0	0.0	7.0	0.0	7.0	0.0	n/a	n/a	n/a	n/a	n/a	n/a	n/a	n/a	n/a	n/a	n/a	n/a	n/a	n/a	n/a	n/a	n/a	n/a	n/a	n/a	n/a	n/a	n/a	n/a	n/a	n/a	n/a	n/a	n/a	n/a	n/a	n/a	n/a	n/a	n/a	n/a	n/a	n/a	n/a	n/a	n/a	n/a	n/a	n/a	n/a	n/a	n/a	n/a	n/a	n/a	674.2259929003194	n/a	n/a	n/a	n/a	n/a	n/a	n/a	n/a	n/a	n/a	n/a	n/a	n/a	n/a	n/a	n/a	n/a	n/a	n/a	n/a	n/a	n/a	n/a	n/a	n/a	n/a	n/a	n/a	n/a	n/a	n/a	n/a	n/a	n/a	n/a	n/a	n/a	n/a	n/a	n/a	n/a	n/a	n/a	n/a	n/a	n/a	n/a	n/a	n/a	n/a	n/a	n/a	n/a	n/a	n/a	n/a	n/a	n/a	n/a	n/a	n/a	n/a	n/a	n/a	42	1	2023-03-14_11h08.45.655	test_final	2022.2.4	60.06485817809829	n/a
n/a	utils/nb_masks/EmoScrambledFW_17F_AN_O.BMP	utils/nb_masks/EmoScrambledBW_17F_AN_O.BMP	n/a	n/a	1.0	n/a	n/a	n/a	n/a	n/a	n/a	n/a	n/a	n/a	n/a	n/a	n/a	n/a	n/a	n/a	n/a	n/a	n/a	n/a	n/a	0.0	0.0	0.0	0.0	8.0	0.0	8.0	0.0	0.0	0.0	0.0	0.0	n/a	n/a	n/a	n/a	n/a	n/a	n/a	n/a	n/a	n/a	n/a	n/a	n/a	n/a	n/a	n/a	n/a	n/a	n/a	n/a	n/a	676.240509999916	678.5713332002051	2.329999999999993	n/a	n/a	n/a	n/a	n/a	n/a	n/a	n/a	n/a	n/a	n/a	n/a	n/a	n/a	n/a	n/a	n/a	n/a	n/a	n/a	n/a	n/a	n/a	n/a	n/a	n/a	n/a	n/a	n/a	n/a	n/a	n/a	n/a	n/a	n/a	n/a	n/a	n/a	n/a	n/a	n/a	n/a	n/a	n/a	n/a	n/a	n/a	n/a	n/a	n/a	4.00003045797348e-06	utils/nb_masks/EmoScrambledFW_17F_AN_O.BMP	0.1332237003371119	8.0	4.1997991502285e-06	0.0317377997562289	NimStim_Database/Images/17F_AN_O.BMP	3.400258719921112e-06	utils/nb_masks/EmoScrambledBW_17F_AN_O.BMP	0.0334276999346911	4.00003045797348e-06	MR2_database/am02.tif	0.000444599892944	n/a	n/a	n/a	n/a	right	0.4621267998591065	679.2837960002944	680.2861268003471	n/a	n/a	n/a	n/a	n/a	n/a	n/a	n/a	n/a	n/a	n/a	n/a	n/a	n/a	n/a	n/a	42	1	2023-03-14_11h08.45.655	test_final	2022.2.4	60.06485817809829	n/a
n/a	n/a	n/a	n/a	n/a	1.0	n/a	n/a	n/a	n/a	n/a	n/a	n/a	n/a	n/a	n/a	n/a	n/a	n/a	n/a	n/a	n/a	n/a	n/a	n/a	n/a	0.0	0.0	0.0	0.0	8.0	0.0	8.0	0.0	n/a	n/a	n/a	n/a	n/a	n/a	n/a	n/a	0.0	0.0	0.0	0.0	n/a	n/a	n/a	n/a	n/a	n/a	n/a	n/a	n/a	n/a	n/a	n/a	n/a	n/a	n/a	n/a	n/a	n/a	n/a	n/a	n/a	n/a	n/a	n/a	n/a	n/a	680.2861268003471	680.2861268003471	4.0	0.4332846994511783	680.752244700212	680.752244700212	680.752244700212	680.752244700212	680.752244700212	680.752244700212	1.0	0.331968099810183	n/a	n/a	n/a	n/a	n/a	n/a	n/a	n/a	n/a	n/a	n/a	n/a	n/a	n/a	n/a	n/a	n/a	n/a	n/a	n/a	n/a	n/a	n/a	n/a	n/a	n/a	n/a	n/a	n/a	n/a	n/a	n/a	n/a	n/a	n/a	n/a	n/a	n/a	n/a	n/a	n/a	n/a	n/a	n/a	n/a	n/a	n/a	n/a	n/a	n/a	n/a	n/a	n/a	n/a	n/a	n/a	n/a	n/a	n/a	n/a	n/a	n/a	n/a	n/a	n/a	42	1	2023-03-14_11h08.45.655	test_final	2022.2.4	60.06485817809829	n/a
n/a	n/a	n/a	n/a	n/a	1.0	n/a	n/a	n/a	n/a	n/a	n/a	n/a	n/a	n/a	n/a	n/a	n/a	n/a	n/a	n/a	n/a	n/a	n/a	n/a	n/a	0.0	0.0	0.0	0.0	8.0	0.0	8.0	0.0	n/a	n/a	n/a	n/a	n/a	n/a	n/a	n/a	n/a	n/a	n/a	n/a	n/a	n/a	n/a	n/a	n/a	n/a	n/a	n/a	n/a	n/a	n/a	n/a	n/a	n/a	n/a	n/a	n/a	n/a	n/a	n/a	n/a	n/a	n/a	n/a	n/a	n/a	n/a	n/a	n/a	n/a	n/a	n/a	n/a	n/a	n/a	n/a	n/a	n/a	681.1018414003775	n/a	n/a	n/a	n/a	n/a	n/a	n/a	n/a	n/a	n/a	n/a	n/a	n/a	n/a	n/a	n/a	n/a	n/a	n/a	n/a	n/a	n/a	n/a	n/a	n/a	n/a	n/a	n/a	n/a	n/a	n/a	n/a	n/a	n/a	n/a	n/a	n/a	n/a	n/a	n/a	n/a	n/a	n/a	n/a	n/a	n/a	n/a	n/a	n/a	n/a	n/a	n/a	n/a	n/a	n/a	n/a	n/a	n/a	n/a	n/a	n/a	n/a	n/a	n/a	42	1	2023-03-14_11h08.45.655	test_final	2022.2.4	60.06485817809829	n/a
n/a	utils/nb_masks/EmoScrambledFW_13F_AN_O.BMP	utils/nb_masks/EmoScrambledBW_13F_AN_O.BMP	n/a	n/a	1.0	n/a	n/a	n/a	n/a	n/a	n/a	n/a	n/a	n/a	n/a	n/a	n/a	n/a	n/a	n/a	n/a	n/a	n/a	n/a	n/a	0.0	0.0	0.0	0.0	9.0	0.0	9.0	0.0	0.0	0.0	0.0	0.0	n/a	n/a	n/a	n/a	n/a	n/a	n/a	n/a	n/a	n/a	n/a	n/a	n/a	n/a	n/a	n/a	n/a	n/a	n/a	n/a	n/a	683.1162669002078	685.1973158000037	2.0699999999999985	n/a	n/a	n/a	n/a	n/a	n/a	n/a	n/a	n/a	n/a	n/a	n/a	n/a	n/a	n/a	n/a	n/a	n/a	n/a	n/a	n/a	n/a	n/a	n/a	n/a	n/a	n/a	n/a	n/a	n/a	n/a	n/a	n/a	n/a	n/a	n/a	n/a	n/a	n/a	n/a	n/a	n/a	n/a	n/a	n/a	n/a	n/a	n/a	n/a	n/a	3.900378942489624e-06	utils/nb_masks/EmoScrambledFW_13F_AN_O.BMP	0.1329678003676235	8.0	3.699678927659989e-06	0.0316542000509798	utils/no_prime.png	3.500375896692276e-06	utils/nb_masks/EmoScrambledBW_13F_AN_O.BMP	0.0334661002270877	4.299916326999664e-06	MR2_database/wf11.tif	0.0004406999796628	n/a	n/a	n/a	n/a	right	0.3604394998401403	685.8109758002684	686.8121418002993	n/a	n/a	n/a	n/a	n/a	n/a	n/a	n/a	n/a	n/a	n/a	n/a	n/a	n/a	n/a	n/a	42	1	2023-03-14_11h08.45.655	test_final	2022.2.4	60.06485817809829	n/a
n/a	n/a	n/a	n/a	n/a	1.0	n/a	n/a	n/a	n/a	n/a	n/a	n/a	n/a	n/a	n/a	n/a	n/a	n/a	n/a	n/a	n/a	n/a	n/a	n/a	n/a	0.0	0.0	0.0	0.0	9.0	0.0	9.0	0.0	n/a	n/a	n/a	n/a	n/a	n/a	n/a	n/a	0.0	0.0	0.0	0.0	n/a	n/a	n/a	n/a	n/a	n/a	n/a	n/a	n/a	n/a	n/a	n/a	n/a	n/a	n/a	n/a	n/a	n/a	n/a	n/a	n/a	n/a	n/a	n/a	n/a	n/a	686.8121418002993	686.8121418002993	4.0	0.2143059996888041	687.045309800189	687.045309800189	687.045309800189	687.045309800189	687.045309800189	687.045309800189	4.0	0.4525277996435761	n/a	n/a	n/a	n/a	n/a	n/a	n/a	n/a	n/a	n/a	n/a	n/a	n/a	n/a	n/a	n/a	n/a	n/a	n/a	n/a	n/a	n/a	n/a	n/a	n/a	n/a	n/a	n/a	n/a	n/a	n/a	n/a	n/a	n/a	n/a	n/a	n/a	n/a	n/a	n/a	n/a	n/a	n/a	n/a	n/a	n/a	n/a	n/a	n/a	n/a	n/a	n/a	n/a	n/a	n/a	n/a	n/a	n/a	n/a	n/a	n/a	n/a	n/a	n/a	n/a	42	1	2023-03-14_11h08.45.655	test_final	2022.2.4	60.06485817809829	n/a
n/a	n/a	n/a	n/a	n/a	1.0	n/a	n/a	n/a	n/a	n/a	n/a	n/a	n/a	n/a	n/a	n/a	n/a	n/a	n/a	n/a	n/a	n/a	n/a	n/a	n/a	0.0	0.0	0.0	0.0	9.0	0.0	9.0	0.0	n/a	n/a	n/a	n/a	n/a	n/a	n/a	n/a	n/a	n/a	n/a	n/a	n/a	n/a	n/a	n/a	n/a	n/a	n/a	n/a	n/a	n/a	n/a	n/a	n/a	n/a	n/a	n/a	n/a	n/a	n/a	n/a	n/a	n/a	n/a	n/a	n/a	n/a	n/a	n/a	n/a	n/a	n/a	n/a	n/a	n/a	n/a	n/a	n/a	n/a	687.5279977000318	n/a	n/a	n/a	n/a	n/a	n/a	n/a	n/a	n/a	n/a	n/a	n/a	n/a	n/a	n/a	n/a	n/a	n/a	n/a	n/a	n/a	n/a	n/a	n/a	n/a	n/a	n/a	n/a	n/a	n/a	n/a	n/a	n/a	n/a	n/a	n/a	n/a	n/a	n/a	n/a	n/a	n/a	n/a	n/a	n/a	n/a	n/a	n/a	n/a	n/a	n/a	n/a	n/a	n/a	n/a	n/a	n/a	n/a	n/a	n/a	n/a	n/a	n/a	n/a	42	1	2023-03-14_11h08.45.655	test_final	2022.2.4	60.06485817809829	n/a
n/a	utils/nb_masks/EmoScrambledFW_26M_AN_C.BMP	utils/nb_masks/EmoScrambledBW_26M_AN_C.BMP	n/a	n/a	1.0	n/a	n/a	n/a	n/a	n/a	n/a	n/a	n/a	n/a	n/a	n/a	n/a	n/a	n/a	n/a	n/a	n/a	n/a	n/a	n/a	0.0	0.0	0.0	0.0	10.0	0.0	10.0	0.0	0.0	0.0	0.0	0.0	n/a	n/a	n/a	n/a	n/a	n/a	n/a	n/a	n/a	n/a	n/a	n/a	n/a	n/a	n/a	n/a	n/a	n/a	n/a	n/a	n/a	689.5425267000683	691.8564981003292	2.2999999999999936	n/a	n/a	n/a	n/a	n/a	n/a	n/a	n/a	n/a	n/a	n/a	n/a	n/a	n/a	n/a	n/a	n/a	n/a	n/a	n/a	n/a	n/a	n/a	n/a	n/a	n/a	n/a	n/a	n/a	n/a	n/a	n/a	n/a	n/a	n/a	n/a	n/a	n/a	n/a	n/a	n/a	n/a	n/a	n/a	n/a	n/a	n/a	n/a	n/a	n/a	3.899913281202316e-06	utils/nb_masks/EmoScrambledFW_26M_AN_C.BMP	0.1495869001373648	9.0	4.100147634744644e-06	0.0319110001437366	utils/no_prime.png	3.899913281202316e-06	utils/nb_masks/EmoScrambledBW_26M_AN_C.BMP	0.0331498999148607	4.500150680541992e-06	MR2_database/bf05.tif	0.0004472001455724	n/a	n/a	n/a	n/a	right	0.4944851999171078	692.613576900214	693.6214036000893	n/a	n/a	n/a	n/a	n/a	n/a	n/a	n/a	n/a	n/a	n/a	n/a	n/a	n/a	n/a	n/a	42	1	2023-03-14_11h08.45.655	test_final	2022.2.4	60.06485817809829	n/a
n/a	n/a	n/a	n/a	n/a	1.0	n/a	n/a	n/a	n/a	n/a	n/a	n/a	n/a	n/a	n/a	n/a	n/a	n/a	n/a	n/a	n/a	n/a	n/a	n/a	n/a	0.0	0.0	0.0	0.0	10.0	0.0	10.0	0.0	n/a	n/a	n/a	n/a	n/a	n/a	n/a	n/a	0.0	0.0	0.0	0.0	n/a	n/a	n/a	n/a	n/a	n/a	n/a	n/a	n/a	n/a	n/a	n/a	n/a	n/a	n/a	n/a	n/a	n/a	n/a	n/a	n/a	n/a	n/a	n/a	n/a	n/a	693.6214036000893	693.6214036000893	4.0	0.2793468995951116	693.9208540003747	693.9208540003747	693.9208540003747	693.9208540003747	693.9208540003747	693.9208540003747	4.0	0.2168435999192297	n/a	n/a	n/a	n/a	n/a	n/a	n/a	n/a	n/a	n/a	n/a	n/a	n/a	n/a	n/a	n/a	n/a	n/a	n/a	n/a	n/a	n/a	n/a	n/a	n/a	n/a	n/a	n/a	n/a	n/a	n/a	n/a	n/a	n/a	n/a	n/a	n/a	n/a	n/a	n/a	n/a	n/a	n/a	n/a	n/a	n/a	n/a	n/a	n/a	n/a	n/a	n/a	n/a	n/a	n/a	n/a	n/a	n/a	n/a	n/a	n/a	n/a	n/a	n/a	n/a	42	1	2023-03-14_11h08.45.655	test_final	2022.2.4	60.06485817809829	n/a
n/a	n/a	n/a	n/a	n/a	1.0	n/a	n/a	n/a	n/a	n/a	n/a	n/a	n/a	n/a	n/a	n/a	n/a	n/a	n/a	n/a	n/a	n/a	n/a	n/a	n/a	0.0	0.0	0.0	0.0	10.0	0.0	10.0	0.0	n/a	n/a	n/a	n/a	n/a	n/a	n/a	n/a	n/a	n/a	n/a	n/a	n/a	n/a	n/a	n/a	n/a	n/a	n/a	n/a	n/a	n/a	n/a	n/a	n/a	n/a	n/a	n/a	n/a	n/a	n/a	n/a	n/a	n/a	n/a	n/a	n/a	n/a	n/a	n/a	n/a	n/a	n/a	n/a	n/a	n/a	n/a	n/a	n/a	n/a	694.1540141003206	n/a	n/a	n/a	n/a	n/a	n/a	n/a	n/a	n/a	n/a	n/a	n/a	n/a	n/a	n/a	n/a	n/a	n/a	n/a	n/a	n/a	n/a	n/a	n/a	n/a	n/a	n/a	n/a	n/a	n/a	n/a	n/a	n/a	n/a	n/a	n/a	n/a	n/a	n/a	n/a	n/a	n/a	n/a	n/a	n/a	n/a	n/a	n/a	n/a	n/a	n/a	n/a	n/a	n/a	n/a	n/a	n/a	n/a	n/a	n/a	n/a	n/a	n/a	n/a	42	1	2023-03-14_11h08.45.655	test_final	2022.2.4	60.06485817809829	n/a
n/a	utils/nb_masks/NeuScrambledFW_30M_NE_O.BMP	utils/nb_masks/NeuScrambledBW_30M_NE_O.BMP	n/a	n/a	1.0	n/a	n/a	n/a	n/a	n/a	n/a	n/a	n/a	n/a	n/a	n/a	n/a	n/a	n/a	n/a	n/a	n/a	n/a	n/a	n/a	0.0	0.0	0.0	0.0	11.0	0.0	11.0	0.0	n/a	n/a	n/a	n/a	0.0	0.0	0.0	0.0	n/a	n/a	n/a	n/a	n/a	n/a	n/a	n/a	n/a	n/a	n/a	n/a	n/a	n/a	n/a	n/a	n/a	696.1686006002128	698.4325206000358	2.2499999999999947	n/a	n/a	n/a	n/a	n/a	n/a	n/a	n/a	n/a	n/a	n/a	n/a	n/a	n/a	n/a	n/a	n/a	n/a	n/a	n/a	n/a	n/a	n/a	n/a	n/a	n/a	n/a	n/a	n/a	n/a	n/a	n/a	n/a	n/a	n/a	n/a	n/a	n/a	n/a	n/a	n/a	n/a	n/a	n/a	n/a	n/a	n/a	n/a	n/a	n/a	4.099681973457336e-06	utils/nb_masks/NeuScrambledFW_30M_NE_O.BMP	0.1665921998210251	10.0	3.4999102354049683e-06	0.0319615001790225	utils/no_prime.png	3.600027412176132e-06	utils/nb_masks/NeuScrambledBW_30M_NE_O.BMP	0.032872499898076	4.299916326999664e-06	MR2_database/af10.tif	0.000450000166893	699.459518100135	699.459518100135	space	1.931000599637628	n/a	n/a	n/a	n/a	n/a	n/a	n/a	n/a	n/a	n/a	n/a	n/a	n/a	n/a	n/a	n/a	n/a	n/a	n/a	n/a	42	1	2023-03-14_11h08.45.655	test_final	2022.2.4	60.06485817809829	n/a
n/a	n/a	n/a	n/a	n/a	1.0	n/a	n/a	n/a	n/a	n/a	n/a	n/a	n/a	n/a	n/a	n/a	n/a	n/a	n/a	n/a	n/a	n/a	n/a	n/a	n/a	0.0	0.0	0.0	0.0	11.0	0.0	11.0	0.0	n/a	n/a	n/a	n/a	n/a	n/a	n/a	n/a	n/a	n/a	n/a	n/a	n/a	n/a	n/a	n/a	n/a	n/a	n/a	n/a	n/a	n/a	n/a	n/a	n/a	n/a	n/a	n/a	n/a	n/a	n/a	n/a	n/a	n/a	n/a	n/a	n/a	n/a	n/a	n/a	n/a	n/a	n/a	n/a	n/a	n/a	n/a	n/a	n/a	n/a	701.4128078999929	n/a	n/a	n/a	n/a	n/a	n/a	n/a	n/a	n/a	n/a	n/a	n/a	n/a	n/a	n/a	n/a	n/a	n/a	n/a	n/a	n/a	n/a	n/a	n/a	n/a	n/a	n/a	n/a	n/a	n/a	n/a	n/a	n/a	n/a	n/a	n/a	n/a	n/a	n/a	n/a	n/a	n/a	n/a	n/a	n/a	n/a	n/a	n/a	n/a	n/a	n/a	n/a	n/a	n/a	n/a	n/a	n/a	n/a	n/a	n/a	n/a	n/a	n/a	n/a	42	1	2023-03-14_11h08.45.655	test_final	2022.2.4	60.06485817809829	n/a
n/a	utils/nb_masks/EmoScrambledFW_25M_AN_C.BMP	utils/nb_masks/EmoScrambledBW_25M_AN_C.BMP	n/a	n/a	1.0	n/a	n/a	n/a	n/a	n/a	n/a	n/a	n/a	n/a	n/a	n/a	n/a	n/a	n/a	n/a	n/a	n/a	n/a	n/a	n/a	0.0	0.0	0.0	0.0	12.0	0.0	12.0	0.0	n/a	n/a	n/a	n/a	0.0	0.0	0.0	0.0	n/a	n/a	n/a	n/a	n/a	n/a	n/a	n/a	n/a	n/a	n/a	n/a	n/a	n/a	n/a	n/a	n/a	703.4273569001816	705.6079780003056	2.179999999999996	n/a	n/a	n/a	n/a	n/a	n/a	n/a	n/a	n/a	n/a	n/a	n/a	n/a	n/a	n/a	n/a	n/a	n/a	n/a	n/a	n/a	n/a	n/a	n/a	n/a	n/a	n/a	n/a	n/a	n/a	n/a	n/a	n/a	n/a	n/a	n/a	n/a	n/a	n/a	n/a	n/a	n/a	n/a	n/a	n/a	n/a	n/a	n/a	n/a	n/a	3.700144588947296e-06	utils/nb_masks/EmoScrambledFW_25M_AN_C.BMP	0.1494158003479242	9.0	4.100147634744644e-06	0.0318816001527011	NimStim_Database/Images/25M_AN_C.BMP	3.600027412176132e-06	utils/nb_masks/EmoScrambledBW_25M_AN_C.BMP	0.0331786000169813	4.400033503770828e-06	MR2_database/bf16.tif	0.0004072999581694	706.6218973002397	706.6218973002397	space	2.299505800008774	n/a	n/a	n/a	n/a	n/a	n/a	n/a	n/a	n/a	n/a	n/a	n/a	n/a	n/a	n/a	n/a	n/a	n/a	n/a	n/a	42	1	2023-03-14_11h08.45.655	test_final	2022.2.4	60.06485817809829	n/a
n/a	n/a	n/a	n/a	n/a	1.0	n/a	n/a	n/a	n/a	n/a	n/a	n/a	n/a	n/a	n/a	n/a	n/a	n/a	n/a	n/a	n/a	n/a	n/a	n/a	n/a	0.0	0.0	0.0	0.0	12.0	0.0	12.0	0.0	n/a	n/a	n/a	n/a	n/a	n/a	n/a	n/a	n/a	n/a	n/a	n/a	n/a	n/a	n/a	n/a	n/a	n/a	n/a	n/a	n/a	n/a	n/a	n/a	n/a	n/a	n/a	n/a	n/a	n/a	n/a	n/a	n/a	n/a	n/a	n/a	n/a	n/a	n/a	n/a	n/a	n/a	n/a	n/a	n/a	n/a	n/a	n/a	n/a	n/a	708.937930200249	n/a	n/a	n/a	n/a	n/a	n/a	n/a	n/a	n/a	n/a	n/a	n/a	n/a	n/a	n/a	n/a	n/a	n/a	n/a	n/a	n/a	n/a	n/a	n/a	n/a	n/a	n/a	n/a	n/a	n/a	n/a	n/a	n/a	n/a	n/a	n/a	n/a	n/a	n/a	n/a	n/a	n/a	n/a	n/a	n/a	n/a	n/a	n/a	n/a	n/a	n/a	n/a	n/a	n/a	n/a	n/a	n/a	n/a	n/a	n/a	n/a	n/a	n/a	n/a	42	1	2023-03-14_11h08.45.655	test_final	2022.2.4	60.06485817809829	n/a
