prac_prime	forward_mask	backward_mask	practice_part1	practice_part2	condition	practice_1.thisRepN	practice_1.thisTrialN	practice_1.thisN	practice_1.thisIndex	practice_2.thisRepN	practice_2.thisTrialN	practice_2.thisN	practice_2.thisIndex	fbLoop1.thisRepN	fbLoop1.thisTrialN	fbLoop1.thisN	fbLoop1.thisIndex	fbLoop2.thisRepN	fbLoop2.thisTrialN	fbLoop2.thisN	fbLoop2.thisIndex	skip_prac.thisRepN	skip_prac.thisTrialN	skip_prac.thisN	skip_prac.thisIndex	block_conditions.thisRepN	block_conditions.thisTrialN	block_conditions.thisN	block_conditions.thisIndex	blocks.thisRepN	blocks.thisTrialN	blocks.thisN	blocks.thisIndex	feedback_con1.thisRepN	feedback_con1.thisTrialN	feedback_con1.thisN	feedback_con1.thisIndex	feedback_con2.thisRepN	feedback_con2.thisTrialN	feedback_con2.thisN	feedback_con2.thisIndex	skip_questionnaire.thisRepN	skip_questionnaire.thisTrialN	skip_questionnaire.thisN	skip_questionnaire.thisIndex	loading_screen.started	welcome_text.started	welcome_resp.started	welcome_resp.keys	welcome_resp.rt	Task_instructions.started	instructions_resp.started	Fake_demo.started	left_arrow_demo.started	Real_demo.started	right_arrow_demo.started	instructions_resp.keys	instructions_resp.rt	fix_cross.started	fix_cross.stopped	fixation_duration	pratice_target1.started	practice_part1_resp.started	prac_LeftArrow.started	prac_RightArrow.started	prac_FakeLabel1.started	prac_RealLabel1.started	practice_part1_resp.keys	practice_part1_resp.rt	prac_fb.started	ISI_prac.started	confidence_resp.started	confidence_scale.started	confidence_resp.keys	confidence_resp.rt	stim_gender.started	attention_resp.started	male_button.started	female_button.started	male_label.started	female_label.started	attention_resp.keys	attention_resp.rt	prestim_text.started	Practice_instructions.started	key_resp.started	key_resp.keys	key_resp.rt	pract_fw.started	pract_fw.stopped	pract_prime.started	pract_prime.stopped	pract_bm.started	pract_bm.stopped	pract_target2.started	prac_resp2.started	prac_LeftArrow_2.started	prac_RightArrow_2.started	prac_FakeLabel1_2.started	prac_RealLabel1_2.started	prac_resp2.keys	prac_fb3.started	prac_fb_resp.started	prac_fb_resp.keys	prac_fb_resp.rt	prac_resp2.rt	prac_fb2.started	prac_fb2.stopped	begin_expt.started	begin_expt.keys	begin_expt.rt	forward_mask.started	forward_mask.1	forward_mask.stopped	forward_mask_duration.frames	prime.started	prime.stopped	prime	backward_mask.started	backward_mask.1	backward_mask.stopped	target.started	target	target.stopped	realness_response	realness_rt	rt_fb.started	rt_fb.stopped	rt_fb_2.started	feedback_resp.started	feedback_resp.keys	feedback_resp.rt	break_text.started	break_resp.started	break_resp.keys	break_resp.rt	familiarity_scale.started	familiarity_resp.started	familiarity_resp.keys	familiarity_resp.rt	PAS_question.started	PAS_response.started	PAS_response.keys	PAS_response.rt	end_experiment.started	end_key.started	end_key.keys	end_key.rt	participant	session	date	expName	psychopyVersion	frameRate	Unnamed: 155
n/a	n/a	n/a	n/a	n/a	n/a	n/a	n/a	n/a	n/a	n/a	n/a	n/a	n/a	n/a	n/a	n/a	n/a	n/a	n/a	n/a	n/a	n/a	n/a	n/a	n/a	n/a	n/a	n/a	n/a	n/a	n/a	n/a	n/a	n/a	n/a	n/a	n/a	n/a	n/a	n/a	n/a	n/a	n/a	n/a	n/a	29.963870600098744	115.13450170005672	115.13450170005672	space	10.845729500055311	n/a	n/a	n/a	n/a	n/a	n/a	n/a	n/a	n/a	n/a	n/a	n/a	n/a	n/a	n/a	n/a	n/a	n/a	n/a	n/a	n/a	n/a	n/a	n/a	n/a	n/a	n/a	n/a	n/a	n/a	n/a	n/a	n/a	n/a	n/a	n/a	n/a	n/a	n/a	n/a	n/a	n/a	n/a	n/a	n/a	n/a	n/a	n/a	n/a	n/a	n/a	n/a	n/a	n/a	n/a	n/a	n/a	n/a	n/a	n/a	n/a	n/a	n/a	n/a	n/a	n/a	n/a	n/a	n/a	n/a	n/a	n/a	n/a	n/a	n/a	n/a	n/a	n/a	n/a	n/a	n/a	n/a	n/a	n/a	n/a	n/a	n/a	n/a	n/a	n/a	n/a	n/a	n/a	n/a	n/a	n/a	n/a	n/a	34	1	2023-03-03_18h11.33.185	test_final	2022.2.4	60.26946479420882	n/a
n/a	n/a	n/a	n/a	n/a	n/a	n/a	n/a	n/a	n/a	n/a	n/a	n/a	n/a	n/a	n/a	n/a	n/a	n/a	n/a	n/a	n/a	n/a	n/a	n/a	n/a	n/a	n/a	n/a	n/a	n/a	n/a	n/a	n/a	n/a	n/a	n/a	n/a	n/a	n/a	n/a	n/a	n/a	n/a	n/a	n/a	n/a	n/a	n/a	n/a	n/a	126.02022910001688	126.02022910001688	126.02022910001688	126.02022910001688	126.02022910001688	126.02022910001688	space	4.991061199922115	n/a	n/a	n/a	n/a	n/a	n/a	n/a	n/a	n/a	n/a	n/a	n/a	n/a	n/a	n/a	n/a	n/a	n/a	n/a	n/a	n/a	n/a	n/a	n/a	n/a	n/a	n/a	n/a	n/a	n/a	n/a	n/a	n/a	n/a	n/a	n/a	n/a	n/a	n/a	n/a	n/a	n/a	n/a	n/a	n/a	n/a	n/a	n/a	n/a	n/a	n/a	n/a	n/a	n/a	n/a	n/a	n/a	n/a	n/a	n/a	n/a	n/a	n/a	n/a	n/a	n/a	n/a	n/a	n/a	n/a	n/a	n/a	n/a	n/a	n/a	n/a	n/a	n/a	n/a	n/a	n/a	n/a	n/a	n/a	n/a	n/a	n/a	n/a	n/a	n/a	34	1	2023-03-03_18h11.33.185	test_final	2022.2.4	60.26946479420882	n/a
NimStim_Database/Images/25M_NE_C.BMP	utils/practice/ScrambledFW_01F_NE_O.BMP	utils/practice/ScrambledBW_01F_NE_O.BMP	utils/practice/real_prac1.jpg	utils/practice/real_prac10.jpg	n/a	0.0	0.0	0.0	0.0	n/a	n/a	n/a	n/a	n/a	n/a	n/a	n/a	n/a	n/a	n/a	n/a	n/a	n/a	n/a	n/a	n/a	n/a	n/a	n/a	n/a	n/a	n/a	n/a	n/a	n/a	n/a	n/a	n/a	n/a	n/a	n/a	n/a	n/a	n/a	n/a	n/a	n/a	n/a	n/a	n/a	n/a	n/a	n/a	n/a	n/a	n/a	n/a	n/a	131.0395786000881	133.38130430015735	2.289999999999994	133.38130430015735	133.38130430015735	133.38130430015735	133.38130430015735	133.38130430015735	133.38130430015735	right	1.6521989998873323	135.06433670013212	0.0103940998669713	137.0780746000819	137.0780746000819	4.0	3.42776979971677	140.52478560013697	140.52478560013697	140.52478560013697	140.52478560013697	140.52478560013697	140.52478560013697	4.0	2.015435299836099	142.57219019997865	n/a	n/a	n/a	n/a	n/a	n/a	n/a	n/a	n/a	n/a	n/a	n/a	n/a	n/a	n/a	n/a	n/a	n/a	n/a	n/a	n/a	n/a	n/a	n/a	n/a	n/a	n/a	n/a	utils/practice/ScrambledFW_01F_NE_O.BMP	n/a	n/a	n/a	n/a	n/a	n/a	utils/practice/ScrambledBW_01F_NE_O.BMP	n/a	n/a	n/a	n/a	n/a	n/a	n/a	n/a	n/a	n/a	n/a	n/a	n/a	n/a	n/a	n/a	n/a	n/a	n/a	n/a	n/a	n/a	n/a	n/a	n/a	n/a	n/a	n/a	34	1	2023-03-03_18h11.33.185	test_final	2022.2.4	60.26946479420882	n/a
NimStim_Database/Images/08F_NE_O.BMP	utils/practice/ScrambledFW_15F_NE_O.BMP	utils/practice/ScrambledBW_15F_NE_O.BMP	utils/practice/fake_prac9.jpg	utils/practice/real_prac5.jpg	n/a	0.0	1.0	1.0	6.0	n/a	n/a	n/a	n/a	n/a	n/a	n/a	n/a	n/a	n/a	n/a	n/a	n/a	n/a	n/a	n/a	n/a	n/a	n/a	n/a	n/a	n/a	n/a	n/a	n/a	n/a	n/a	n/a	n/a	n/a	n/a	n/a	n/a	n/a	n/a	n/a	n/a	n/a	n/a	n/a	n/a	n/a	n/a	n/a	n/a	n/a	n/a	n/a	n/a	144.58677930012345	147.05291229998693	2.429999999999991	147.05291229998693	147.05291229998693	147.05291229998693	147.05291229998693	147.05291229998693	147.05291229998693	left	1.4797038999386132	148.54956660000607	0.0100229000672698	150.56340810004622	150.56340810004622	2.0	1.8152289998251945	152.4114733999595	152.4114733999595	152.4114733999595	152.4114733999595	152.4114733999595	152.4114733999595	4.0	1.9400589999277145	154.37617640011013	n/a	n/a	n/a	n/a	n/a	n/a	n/a	n/a	n/a	n/a	n/a	n/a	n/a	n/a	n/a	n/a	n/a	n/a	n/a	n/a	n/a	n/a	n/a	n/a	n/a	n/a	n/a	n/a	utils/practice/ScrambledFW_15F_NE_O.BMP	n/a	n/a	n/a	n/a	n/a	n/a	utils/practice/ScrambledBW_15F_NE_O.BMP	n/a	n/a	n/a	n/a	n/a	n/a	n/a	n/a	n/a	n/a	n/a	n/a	n/a	n/a	n/a	n/a	n/a	n/a	n/a	n/a	n/a	n/a	n/a	n/a	n/a	n/a	n/a	n/a	34	1	2023-03-03_18h11.33.185	test_final	2022.2.4	60.26946479420882	n/a
NimStim_Database/Images/43M_NE_O.BMP	utils/practice/ScrambledFW_11F_NE_C.BMP	utils/practice/ScrambledBW_11F_NE_C.BMP	utils/practice/real_prac11.jpg	utils/practice/fake_prac11.jpg	n/a	0.0	2.0	2.0	4.0	n/a	n/a	n/a	n/a	n/a	n/a	n/a	n/a	n/a	n/a	n/a	n/a	n/a	n/a	n/a	n/a	n/a	n/a	n/a	n/a	n/a	n/a	n/a	n/a	n/a	n/a	n/a	n/a	n/a	n/a	n/a	n/a	n/a	n/a	n/a	n/a	n/a	n/a	n/a	n/a	n/a	n/a	n/a	n/a	n/a	n/a	n/a	n/a	n/a	156.3906149000395	158.89238780015148	2.4499999999999904	158.89238780015148	158.89238780015148	158.89238780015148	158.89238780015148	158.89238780015148	158.89238780015148	right	0.9335596999153496	159.85353730013594	0.00447060004808	161.86786120012405	161.86786120012405	4.0	1.477799799758941	163.36613370012492	163.36613370012492	163.36613370012492	163.36613370012492	163.36613370012492	163.36613370012492	1.0	1.287194199860096	164.68151580006815	n/a	n/a	n/a	n/a	n/a	n/a	n/a	n/a	n/a	n/a	n/a	n/a	n/a	n/a	n/a	n/a	n/a	n/a	n/a	n/a	n/a	n/a	n/a	n/a	n/a	n/a	n/a	n/a	utils/practice/ScrambledFW_11F_NE_C.BMP	n/a	n/a	n/a	n/a	n/a	n/a	utils/practice/ScrambledBW_11F_NE_C.BMP	n/a	n/a	n/a	n/a	n/a	n/a	n/a	n/a	n/a	n/a	n/a	n/a	n/a	n/a	n/a	n/a	n/a	n/a	n/a	n/a	n/a	n/a	n/a	n/a	n/a	n/a	n/a	n/a	34	1	2023-03-03_18h11.33.185	test_final	2022.2.4	60.26946479420882	n/a
NimStim_Database/Images/37M_NE_C.BMP	utils/practice/ScrambledFW_24M_NE_C.BMP	utils/practice/ScrambledBW_24M_NE_C.BMP	utils/practice/real_prac7.jpg	utils/practice/real_prac14.jpg	n/a	0.0	3.0	3.0	9.0	n/a	n/a	n/a	n/a	n/a	n/a	n/a	n/a	n/a	n/a	n/a	n/a	n/a	n/a	n/a	n/a	n/a	n/a	n/a	n/a	n/a	n/a	n/a	n/a	n/a	n/a	n/a	n/a	n/a	n/a	n/a	n/a	n/a	n/a	n/a	n/a	n/a	n/a	n/a	n/a	n/a	n/a	n/a	n/a	n/a	n/a	n/a	n/a	n/a	166.69596459995955	168.97318890015595	2.239999999999995	168.97318890015595	168.97318890015595	168.97318890015595	168.97318890015595	168.97318890015595	168.97318890015595	left	1.0987609000876546	170.09220509999432	0.0023586000315845	172.10661659995094	172.10661659995094	2.0	3.568470299942419	175.70263920002617	175.70263920002617	175.70263920002617	175.70263920002617	175.70263920002617	175.70263920002617	4.0	1.5406355999875814	177.26740760006942	n/a	n/a	n/a	n/a	n/a	n/a	n/a	n/a	n/a	n/a	n/a	n/a	n/a	n/a	n/a	n/a	n/a	n/a	n/a	n/a	n/a	n/a	n/a	n/a	n/a	n/a	n/a	n/a	utils/practice/ScrambledFW_24M_NE_C.BMP	n/a	n/a	n/a	n/a	n/a	n/a	utils/practice/ScrambledBW_24M_NE_C.BMP	n/a	n/a	n/a	n/a	n/a	n/a	n/a	n/a	n/a	n/a	n/a	n/a	n/a	n/a	n/a	n/a	n/a	n/a	n/a	n/a	n/a	n/a	n/a	n/a	n/a	n/a	n/a	n/a	34	1	2023-03-03_18h11.33.185	test_final	2022.2.4	60.26946479420882	n/a
NimStim_Database/Images/12F_NE_C.BMP	utils/practice/ScrambledFW_03F_NE_O.BMP	utils/practice/ScrambledBW_03F_NE_O.BMP	utils/practice/real_prac9.jpg	utils/practice/real_prac13.jpg	n/a	0.0	4.0	4.0	1.0	n/a	n/a	n/a	n/a	n/a	n/a	n/a	n/a	n/a	n/a	n/a	n/a	n/a	n/a	n/a	n/a	n/a	n/a	n/a	n/a	n/a	n/a	n/a	n/a	n/a	n/a	n/a	n/a	n/a	n/a	n/a	n/a	n/a	n/a	n/a	n/a	n/a	n/a	n/a	n/a	n/a	n/a	n/a	n/a	n/a	n/a	n/a	n/a	n/a	179.28219059994444	181.54874370014292	2.229999999999995	181.54874370014292	181.54874370014292	181.54874370014292	181.54874370014292	181.54874370014292	181.54874370014292	right	1.194288699887693	182.7616823001299	0.0026815000455826	184.77604710008015	184.77604710008015	4.0	1.23701349995099	186.04133430006917	186.04133430006917	186.04133430006917	186.04133430006917	186.04133430006917	186.04133430006917	1.0	0.8151657998096198	186.8735487000085	n/a	n/a	n/a	n/a	n/a	n/a	n/a	n/a	n/a	n/a	n/a	n/a	n/a	n/a	n/a	n/a	n/a	n/a	n/a	n/a	n/a	n/a	n/a	n/a	n/a	n/a	n/a	n/a	utils/practice/ScrambledFW_03F_NE_O.BMP	n/a	n/a	n/a	n/a	n/a	n/a	utils/practice/ScrambledBW_03F_NE_O.BMP	n/a	n/a	n/a	n/a	n/a	n/a	n/a	n/a	n/a	n/a	n/a	n/a	n/a	n/a	n/a	n/a	n/a	n/a	n/a	n/a	n/a	n/a	n/a	n/a	n/a	n/a	n/a	n/a	34	1	2023-03-03_18h11.33.185	test_final	2022.2.4	60.26946479420882	n/a
NimStim_Database/Images/06F_NE_O.BMP	utils/practice/ScrambledFW_06F_NE_O.BMP	utils/practice/ScrambledBW_06F_NE_O.BMP	utils/practice/fake_prac2.jpg	utils/practice/real_prac15.jpg	n/a	0.0	5.0	5.0	2.0	n/a	n/a	n/a	n/a	n/a	n/a	n/a	n/a	n/a	n/a	n/a	n/a	n/a	n/a	n/a	n/a	n/a	n/a	n/a	n/a	n/a	n/a	n/a	n/a	n/a	n/a	n/a	n/a	n/a	n/a	n/a	n/a	n/a	n/a	n/a	n/a	n/a	n/a	n/a	n/a	n/a	n/a	n/a	n/a	n/a	n/a	n/a	n/a	n/a	188.88797549996525	190.96341240010224	2.039999999999999	190.96341240010224	190.96341240010224	190.96341240010224	190.96341240010224	190.96341240010224	190.96341240010224	left	0.9836311996914446	191.9682388000656	0.0042719000484794	193.98248840007	193.98248840007	3.0	1.8998710999730972	195.9139207000844	195.9139207000844	195.9139207000844	195.9139207000844	195.9139207000844	195.9139207000844	4.0	1.2050364997703582	197.14573290012777	n/a	n/a	n/a	n/a	n/a	n/a	n/a	n/a	n/a	n/a	n/a	n/a	n/a	n/a	n/a	n/a	n/a	n/a	n/a	n/a	n/a	n/a	n/a	n/a	n/a	n/a	n/a	n/a	utils/practice/ScrambledFW_06F_NE_O.BMP	n/a	n/a	n/a	n/a	n/a	n/a	utils/practice/ScrambledBW_06F_NE_O.BMP	n/a	n/a	n/a	n/a	n/a	n/a	n/a	n/a	n/a	n/a	n/a	n/a	n/a	n/a	n/a	n/a	n/a	n/a	n/a	n/a	n/a	n/a	n/a	n/a	n/a	n/a	n/a	n/a	34	1	2023-03-03_18h11.33.185	test_final	2022.2.4	60.26946479420882	n/a
NimStim_Database/Images/28M_NE_C.BMP	utils/practice/ScrambledFW_33M_NE_C.BMP	utils/practice/ScrambledBW_33M_NE_C.BMP	utils/practice/real_prac2.jpg	utils/practice/fake_prac16.jpg	n/a	0.0	6.0	6.0	13.0	n/a	n/a	n/a	n/a	n/a	n/a	n/a	n/a	n/a	n/a	n/a	n/a	n/a	n/a	n/a	n/a	n/a	n/a	n/a	n/a	n/a	n/a	n/a	n/a	n/a	n/a	n/a	n/a	n/a	n/a	n/a	n/a	n/a	n/a	n/a	n/a	n/a	n/a	n/a	n/a	n/a	n/a	n/a	n/a	n/a	n/a	n/a	n/a	n/a	199.16034179995768	201.36041940003636	2.149999999999997	201.36041940003636	201.36041940003636	201.36041940003636	201.36041940003636	201.36041940003636	201.36041940003636	left	1.35189039981924	202.73939860006797	0.0029504999984055	204.75406250008385	204.75406250008385	2.0	1.063599299872294	205.83595159999092	205.83595159999092	205.83595159999092	205.83595159999092	205.83595159999092	205.83595159999092	1.0	1.024344699922949	206.8849188000895	n/a	n/a	n/a	n/a	n/a	n/a	n/a	n/a	n/a	n/a	n/a	n/a	n/a	n/a	n/a	n/a	n/a	n/a	n/a	n/a	n/a	n/a	n/a	n/a	n/a	n/a	n/a	n/a	utils/practice/ScrambledFW_33M_NE_C.BMP	n/a	n/a	n/a	n/a	n/a	n/a	utils/practice/ScrambledBW_33M_NE_C.BMP	n/a	n/a	n/a	n/a	n/a	n/a	n/a	n/a	n/a	n/a	n/a	n/a	n/a	n/a	n/a	n/a	n/a	n/a	n/a	n/a	n/a	n/a	n/a	n/a	n/a	n/a	n/a	n/a	34	1	2023-03-03_18h11.33.185	test_final	2022.2.4	60.26946479420882	n/a
NimStim_Database/Images/28M_NE_O.BMP	utils/practice/ScrambledFW_12F_NE_C.BMP	utils/practice/ScrambledBW_12F_NE_C.BMP	utils/practice/fake_prac3.jpg	utils/practice/fake_prac10.jpg	n/a	0.0	7.0	7.0	5.0	n/a	n/a	n/a	n/a	n/a	n/a	n/a	n/a	n/a	n/a	n/a	n/a	n/a	n/a	n/a	n/a	n/a	n/a	n/a	n/a	n/a	n/a	n/a	n/a	n/a	n/a	n/a	n/a	n/a	n/a	n/a	n/a	n/a	n/a	n/a	n/a	n/a	n/a	n/a	n/a	n/a	n/a	n/a	n/a	n/a	n/a	n/a	n/a	n/a	208.89964980003424	211.2010946001392	2.2599999999999945	211.2010946001392	211.2010946001392	211.2010946001392	211.2010946001392	211.2010946001392	211.2010946001392	left	1.0759682999923823	212.2957330001518	0.002403900027275	214.3100781000685	214.3100781000685	4.0	0.8290212000720203	215.15915230009705	215.15915230009705	215.15915230009705	215.15915230009705	215.15915230009705	215.15915230009705	4.0	1.3799476998392493	216.55759890004992	n/a	n/a	n/a	n/a	n/a	n/a	n/a	n/a	n/a	n/a	n/a	n/a	n/a	n/a	n/a	n/a	n/a	n/a	n/a	n/a	n/a	n/a	n/a	n/a	n/a	n/a	n/a	n/a	utils/practice/ScrambledFW_12F_NE_C.BMP	n/a	n/a	n/a	n/a	n/a	n/a	utils/practice/ScrambledBW_12F_NE_C.BMP	n/a	n/a	n/a	n/a	n/a	n/a	n/a	n/a	n/a	n/a	n/a	n/a	n/a	n/a	n/a	n/a	n/a	n/a	n/a	n/a	n/a	n/a	n/a	n/a	n/a	n/a	n/a	n/a	34	1	2023-03-03_18h11.33.185	test_final	2022.2.4	60.26946479420882	n/a
NimStim_Database/Images/33M_NE_C.BMP	utils/practice/ScrambledFW_25M_NE_C.BMP	utils/practice/ScrambledBW_25M_NE_C.BMP	utils/practice/fake_prac4.jpg	utils/practice/fake_prac5.jpg	n/a	0.0	8.0	8.0	10.0	n/a	n/a	n/a	n/a	n/a	n/a	n/a	n/a	n/a	n/a	n/a	n/a	n/a	n/a	n/a	n/a	n/a	n/a	n/a	n/a	n/a	n/a	n/a	n/a	n/a	n/a	n/a	n/a	n/a	n/a	n/a	n/a	n/a	n/a	n/a	n/a	n/a	n/a	n/a	n/a	n/a	n/a	n/a	n/a	n/a	n/a	n/a	n/a	n/a	218.5724164999556	221.01508980011567	2.3999999999999915	221.01508980011567	221.01508980011567	221.01508980011567	221.01508980011567	221.01508980011567	221.01508980011567	right	1.4655272997915745	222.5012944999617	0.0041034999303519	224.5157097999472	224.5157097999472	1.0	1.4410884999670088	225.98061680002135	225.98061680002135	225.98061680002135	225.98061680002135	225.98061680002135	225.98061680002135	4.0	1.1616617999970913	227.16284779994749	n/a	n/a	n/a	n/a	n/a	n/a	n/a	n/a	n/a	n/a	n/a	n/a	n/a	n/a	n/a	n/a	n/a	n/a	n/a	n/a	n/a	n/a	n/a	n/a	n/a	n/a	n/a	n/a	utils/practice/ScrambledFW_25M_NE_C.BMP	n/a	n/a	n/a	n/a	n/a	n/a	utils/practice/ScrambledBW_25M_NE_C.BMP	n/a	n/a	n/a	n/a	n/a	n/a	n/a	n/a	n/a	n/a	n/a	n/a	n/a	n/a	n/a	n/a	n/a	n/a	n/a	n/a	n/a	n/a	n/a	n/a	n/a	n/a	n/a	n/a	34	1	2023-03-03_18h11.33.185	test_final	2022.2.4	60.26946479420882	n/a
NimStim_Database/Images/01F_NE_O.BMP	utils/practice/ScrambledFW_28M_NE_O.BMP	utils/practice/ScrambledBW_28M_NE_O.BMP	utils/practice/fake_prac14.jpg	utils/practice/fake_prac8.jpg	n/a	0.0	9.0	9.0	12.0	n/a	n/a	n/a	n/a	n/a	n/a	n/a	n/a	n/a	n/a	n/a	n/a	n/a	n/a	n/a	n/a	n/a	n/a	n/a	n/a	n/a	n/a	n/a	n/a	n/a	n/a	n/a	n/a	n/a	n/a	n/a	n/a	n/a	n/a	n/a	n/a	n/a	n/a	n/a	n/a	n/a	n/a	n/a	n/a	n/a	n/a	n/a	n/a	n/a	229.17726909997876	231.3443938000128	2.129999999999997	231.3443938000128	231.3443938000128	231.3443938000128	231.3443938000128	231.3443938000128	231.3443938000128	left	1.302830699831247	232.67343580001037	0.00407260004431	234.6876169999596	234.6876169999596	4.0	0.836935699917376	235.55311219999567	235.55311219999567	235.55311219999567	235.55311219999567	235.55311219999567	235.55311219999567	4.0	1.7866188997868448	237.3682904001325	n/a	n/a	n/a	n/a	n/a	n/a	n/a	n/a	n/a	n/a	n/a	n/a	n/a	n/a	n/a	n/a	n/a	n/a	n/a	n/a	n/a	n/a	n/a	n/a	n/a	n/a	n/a	n/a	utils/practice/ScrambledFW_28M_NE_O.BMP	n/a	n/a	n/a	n/a	n/a	n/a	utils/practice/ScrambledBW_28M_NE_O.BMP	n/a	n/a	n/a	n/a	n/a	n/a	n/a	n/a	n/a	n/a	n/a	n/a	n/a	n/a	n/a	n/a	n/a	n/a	n/a	n/a	n/a	n/a	n/a	n/a	n/a	n/a	n/a	n/a	34	1	2023-03-03_18h11.33.185	test_final	2022.2.4	60.26946479420882	n/a
NimStim_Database/Images/23M_NE_C.BMP	utils/practice/ScrambledFW_28M_NE_C.BMP	utils/practice/ScrambledBW_28M_NE_C.BMP	utils/practice/real_prac8.jpg	utils/practice/real_prac3.jpg	n/a	0.0	10.0	10.0	11.0	n/a	n/a	n/a	n/a	n/a	n/a	n/a	n/a	n/a	n/a	n/a	n/a	n/a	n/a	n/a	n/a	n/a	n/a	n/a	n/a	n/a	n/a	n/a	n/a	n/a	n/a	n/a	n/a	n/a	n/a	n/a	n/a	n/a	n/a	n/a	n/a	n/a	n/a	n/a	n/a	n/a	n/a	n/a	n/a	n/a	n/a	n/a	n/a	n/a	239.3826375999488	241.850323199993	2.419999999999991	241.850323199993	241.850323199993	241.850323199993	241.850323199993	241.850323199993	241.850323199993	right	1.1599689996801317	243.0284840001259	0.0031761000864207	245.0430435000453	245.0430435000453	2.0	0.8631894998252392	245.92528409999795	245.92528409999795	245.92528409999795	245.92528409999795	245.92528409999795	245.92528409999795	4.0	0.8757632998749614	246.8242616001517	n/a	n/a	n/a	n/a	n/a	n/a	n/a	n/a	n/a	n/a	n/a	n/a	n/a	n/a	n/a	n/a	n/a	n/a	n/a	n/a	n/a	n/a	n/a	n/a	n/a	n/a	n/a	n/a	utils/practice/ScrambledFW_28M_NE_C.BMP	n/a	n/a	n/a	n/a	n/a	n/a	utils/practice/ScrambledBW_28M_NE_C.BMP	n/a	n/a	n/a	n/a	n/a	n/a	n/a	n/a	n/a	n/a	n/a	n/a	n/a	n/a	n/a	n/a	n/a	n/a	n/a	n/a	n/a	n/a	n/a	n/a	n/a	n/a	n/a	n/a	34	1	2023-03-03_18h11.33.185	test_final	2022.2.4	60.26946479420882	n/a
NimStim_Database/Images/03F_NE_O.BMP	utils/practice/ScrambledFW_23M_NE_C.BMP	utils/practice/ScrambledBW_23M_NE_C.BMP	utils/practice/fake_prac7.jpg	utils/practice/real_prac6.jpg	n/a	0.0	11.0	11.0	8.0	n/a	n/a	n/a	n/a	n/a	n/a	n/a	n/a	n/a	n/a	n/a	n/a	n/a	n/a	n/a	n/a	n/a	n/a	n/a	n/a	n/a	n/a	n/a	n/a	n/a	n/a	n/a	n/a	n/a	n/a	n/a	n/a	n/a	n/a	n/a	n/a	n/a	n/a	n/a	n/a	n/a	n/a	n/a	n/a	n/a	n/a	n/a	n/a	n/a	248.83906730008312	251.34729720000175	2.4799999999999898	251.34729720000175	251.34729720000175	251.34729720000175	251.34729720000175	251.34729720000175	251.34729720000175	left	0.9005664999131113	252.2685442001093	0.0022593000903725	254.28281230013815	254.28281230013815	2.0	0.5785884999204427	254.88214579992928	254.88214579992928	254.88214579992928	254.88214579992928	254.88214579992928	254.88214579992928	4.0	0.2812157999724149	255.1820154001471	n/a	n/a	n/a	n/a	n/a	n/a	n/a	n/a	n/a	n/a	n/a	n/a	n/a	n/a	n/a	n/a	n/a	n/a	n/a	n/a	n/a	n/a	n/a	n/a	n/a	n/a	n/a	n/a	utils/practice/ScrambledFW_23M_NE_C.BMP	n/a	n/a	n/a	n/a	n/a	n/a	utils/practice/ScrambledBW_23M_NE_C.BMP	n/a	n/a	n/a	n/a	n/a	n/a	n/a	n/a	n/a	n/a	n/a	n/a	n/a	n/a	n/a	n/a	n/a	n/a	n/a	n/a	n/a	n/a	n/a	n/a	n/a	n/a	n/a	n/a	34	1	2023-03-03_18h11.33.185	test_final	2022.2.4	60.26946479420882	n/a
NimStim_Database/Images/16F_NE_O.BMP	utils/practice/ScrambledFW_16F_NE_O.BMP	utils/practice/ScrambledBW_16F_NE_O.BMP	utils/practice/fake_prac6.jpg	utils/practice/fake_prac15.jpg	n/a	0.0	12.0	12.0	7.0	n/a	n/a	n/a	n/a	n/a	n/a	n/a	n/a	n/a	n/a	n/a	n/a	n/a	n/a	n/a	n/a	n/a	n/a	n/a	n/a	n/a	n/a	n/a	n/a	n/a	n/a	n/a	n/a	n/a	n/a	n/a	n/a	n/a	n/a	n/a	n/a	n/a	n/a	n/a	n/a	n/a	n/a	n/a	n/a	n/a	n/a	n/a	n/a	n/a	257.1965886000544	259.6628982999828	2.419999999999991	259.6628982999828	259.6628982999828	259.6628982999828	259.6628982999828	259.6628982999828	259.6628982999828	left	0.9597567999735476	260.64265149994753	0.002183899981901	262.6570339000318	262.6570339000318	2.0	1.6916986997239292	264.3718247001525	264.3718247001525	264.3718247001525	264.3718247001525	264.3718247001525	264.3718247001525	1.0	1.0279540999326855	265.4207405000925	n/a	n/a	n/a	n/a	n/a	n/a	n/a	n/a	n/a	n/a	n/a	n/a	n/a	n/a	n/a	n/a	n/a	n/a	n/a	n/a	n/a	n/a	n/a	n/a	n/a	n/a	n/a	n/a	utils/practice/ScrambledFW_16F_NE_O.BMP	n/a	n/a	n/a	n/a	n/a	n/a	utils/practice/ScrambledBW_16F_NE_O.BMP	n/a	n/a	n/a	n/a	n/a	n/a	n/a	n/a	n/a	n/a	n/a	n/a	n/a	n/a	n/a	n/a	n/a	n/a	n/a	n/a	n/a	n/a	n/a	n/a	n/a	n/a	n/a	n/a	34	1	2023-03-03_18h11.33.185	test_final	2022.2.4	60.26946479420882	n/a
NimStim_Database/Images/15F_NE_O.BMP	utils/practice/ScrambledFW_08F_NE_O.BMP	utils/practice/ScrambledBW_08F_NE_O.BMP	utils/practice/real_prac4.jpg	utils/practice/fake_prac12.jpg	n/a	0.0	13.0	13.0	3.0	n/a	n/a	n/a	n/a	n/a	n/a	n/a	n/a	n/a	n/a	n/a	n/a	n/a	n/a	n/a	n/a	n/a	n/a	n/a	n/a	n/a	n/a	n/a	n/a	n/a	n/a	n/a	n/a	n/a	n/a	n/a	n/a	n/a	n/a	n/a	n/a	n/a	n/a	n/a	n/a	n/a	n/a	n/a	n/a	n/a	n/a	n/a	n/a	n/a	267.4351024001371	269.65206010011025	2.1699999999999964	269.65206010011025	269.65206010011025	269.65206010011025	269.65206010011025	269.65206010011025	269.65206010011025	right	1.7398134998511523	271.4141269000247	0.0036929999478161	273.42858129995875	273.42858129995875	2.0	0.9800071998033671	274.4274901000317	274.4274901000317	274.4274901000317	274.4274901000317	274.4274901000317	274.4274901000317	4.0	1.2430791999213398	275.69253370002843	n/a	n/a	n/a	n/a	n/a	n/a	n/a	n/a	n/a	n/a	n/a	n/a	n/a	n/a	n/a	n/a	n/a	n/a	n/a	n/a	n/a	n/a	n/a	n/a	n/a	n/a	n/a	n/a	utils/practice/ScrambledFW_08F_NE_O.BMP	n/a	n/a	n/a	n/a	n/a	n/a	utils/practice/ScrambledBW_08F_NE_O.BMP	n/a	n/a	n/a	n/a	n/a	n/a	n/a	n/a	n/a	n/a	n/a	n/a	n/a	n/a	n/a	n/a	n/a	n/a	n/a	n/a	n/a	n/a	n/a	n/a	n/a	n/a	n/a	n/a	34	1	2023-03-03_18h11.33.185	test_final	2022.2.4	60.26946479420882	n/a
NimStim_Database/Images/11F_NE_C.BMP	utils/practice/ScrambledFW_37M_NE_C.BMP	utils/practice/ScrambledBW_37M_NE_C.BMP	utils/practice/real_prac16.jpg	utils/practice/fake_prac1.jpg	n/a	0.0	14.0	14.0	14.0	n/a	n/a	n/a	n/a	n/a	n/a	n/a	n/a	n/a	n/a	n/a	n/a	n/a	n/a	n/a	n/a	n/a	n/a	n/a	n/a	n/a	n/a	n/a	n/a	n/a	n/a	n/a	n/a	n/a	n/a	n/a	n/a	n/a	n/a	n/a	n/a	n/a	n/a	n/a	n/a	n/a	n/a	n/a	n/a	n/a	n/a	n/a	n/a	n/a	277.7071412000805	279.9377294001169	2.189999999999996	279.9377294001169	279.9377294001169	279.9377294001169	279.9377294001169	279.9377294001169	279.9377294001169	right	1.338386699790135	281.3033321001567	0.0024560999590903	283.3174962999765	283.3174962999765	2.0	0.5394508999306709	283.883854100015	283.883854100015	283.883854100015	283.883854100015	283.883854100015	283.883854100015	4.0	0.7002773997373879	284.6162708001212	n/a	n/a	n/a	n/a	n/a	n/a	n/a	n/a	n/a	n/a	n/a	n/a	n/a	n/a	n/a	n/a	n/a	n/a	n/a	n/a	n/a	n/a	n/a	n/a	n/a	n/a	n/a	n/a	utils/practice/ScrambledFW_37M_NE_C.BMP	n/a	n/a	n/a	n/a	n/a	n/a	utils/practice/ScrambledBW_37M_NE_C.BMP	n/a	n/a	n/a	n/a	n/a	n/a	n/a	n/a	n/a	n/a	n/a	n/a	n/a	n/a	n/a	n/a	n/a	n/a	n/a	n/a	n/a	n/a	n/a	n/a	n/a	n/a	n/a	n/a	34	1	2023-03-03_18h11.33.185	test_final	2022.2.4	60.26946479420882	n/a
NimStim_Database/Images/24M_NE_C.BMP	utils/practice/ScrambledFW_43M_NE_O.BMP	utils/practice/ScrambledBW_43M_NE_O.BMP	utils/practice/fake_prac13.jpg	utils/practice/real_prac12.jpg	n/a	0.0	15.0	15.0	15.0	n/a	n/a	n/a	n/a	n/a	n/a	n/a	n/a	n/a	n/a	n/a	n/a	n/a	n/a	n/a	n/a	n/a	n/a	n/a	n/a	n/a	n/a	n/a	n/a	n/a	n/a	n/a	n/a	n/a	n/a	n/a	n/a	n/a	n/a	n/a	n/a	n/a	n/a	n/a	n/a	n/a	n/a	n/a	n/a	n/a	n/a	n/a	n/a	n/a	286.6308749001473	289.06314260000363	2.389999999999992	289.06314260000363	289.06314260000363	289.06314260000363	289.06314260000363	289.06314260000363	289.06314260000363	left	1.0118257999420166	290.09366060001776	0.002226399956271	292.1078925000038	292.1078925000038	2.0	1.0197805999778211	293.1682307999581	293.1682307999581	293.1682307999581	293.1682307999581	293.1682307999581	293.1682307999581	4.0	0.9532149999868124	294.1387845000718	n/a	n/a	n/a	n/a	n/a	n/a	n/a	n/a	n/a	n/a	n/a	n/a	n/a	n/a	n/a	n/a	n/a	n/a	n/a	n/a	n/a	n/a	n/a	n/a	n/a	n/a	n/a	n/a	utils/practice/ScrambledFW_43M_NE_O.BMP	n/a	n/a	n/a	n/a	n/a	n/a	utils/practice/ScrambledBW_43M_NE_O.BMP	n/a	n/a	n/a	n/a	n/a	n/a	n/a	n/a	n/a	n/a	n/a	n/a	n/a	n/a	n/a	n/a	n/a	n/a	n/a	n/a	n/a	n/a	n/a	n/a	n/a	n/a	n/a	n/a	34	1	2023-03-03_18h11.33.185	test_final	2022.2.4	60.26946479420882	n/a
n/a	n/a	n/a	n/a	n/a	n/a	n/a	n/a	n/a	n/a	n/a	n/a	n/a	n/a	n/a	n/a	n/a	n/a	n/a	n/a	n/a	n/a	n/a	n/a	n/a	n/a	n/a	n/a	n/a	n/a	n/a	n/a	n/a	n/a	n/a	n/a	n/a	n/a	n/a	n/a	n/a	n/a	n/a	n/a	n/a	n/a	n/a	n/a	n/a	n/a	n/a	n/a	n/a	n/a	n/a	n/a	n/a	n/a	n/a	n/a	n/a	n/a	n/a	n/a	n/a	n/a	n/a	n/a	n/a	n/a	n/a	n/a	n/a	n/a	n/a	n/a	n/a	n/a	n/a	n/a	n/a	n/a	n/a	n/a	n/a	296.15362120000646	296.15362120000646	space	50.82309879991226	n/a	n/a	n/a	n/a	n/a	n/a	n/a	n/a	n/a	n/a	n/a	n/a	n/a	n/a	n/a	n/a	n/a	n/a	n/a	n/a	n/a	n/a	n/a	n/a	n/a	n/a	n/a	n/a	n/a	n/a	n/a	n/a	n/a	n/a	n/a	n/a	n/a	n/a	n/a	n/a	n/a	n/a	n/a	n/a	n/a	n/a	n/a	n/a	n/a	n/a	n/a	n/a	n/a	n/a	n/a	n/a	n/a	n/a	n/a	n/a	34	1	2023-03-03_18h11.33.185	test_final	2022.2.4	60.26946479420882	n/a
NimStim_Database/Images/33M_NE_C.BMP	utils/practice/ScrambledFW_25M_NE_C.BMP	utils/practice/ScrambledBW_25M_NE_C.BMP	utils/practice/fake_prac4.jpg	utils/practice/fake_prac5.jpg	n/a	n/a	n/a	n/a	n/a	0.0	0.0	0.0	10.0	n/a	n/a	n/a	n/a	0.0	0.0	0.0	0.0	n/a	n/a	n/a	n/a	n/a	n/a	n/a	n/a	n/a	n/a	n/a	n/a	n/a	n/a	n/a	n/a	n/a	n/a	n/a	n/a	n/a	n/a	n/a	n/a	n/a	n/a	n/a	n/a	n/a	n/a	n/a	n/a	n/a	n/a	n/a	n/a	n/a	346.99752520001493	349.08817870006897	2.0799999999999983	n/a	n/a	n/a	n/a	n/a	n/a	n/a	n/a	n/a	n/a	n/a	n/a	n/a	n/a	n/a	n/a	n/a	n/a	n/a	n/a	n/a	n/a	n/a	n/a	n/a	n/a	n/a	349.08817870006897	349.2121256000828	349.2121256000828	349.25091499998234	349.25091499998234	349.32536270003766	349.32536270003766	349.32536270003766	349.32536270003766	349.32536270003766	349.32536270003766	349.32536270003766	None	350.05715470016	350.05715470016	space	2.7984880998265	n/a	n/a	n/a	n/a	n/a	n/a	n/a	utils/practice/ScrambledFW_25M_NE_C.BMP	n/a	n/a	n/a	n/a	n/a	n/a	utils/practice/ScrambledBW_25M_NE_C.BMP	n/a	n/a	n/a	n/a	n/a	n/a	n/a	n/a	n/a	n/a	n/a	n/a	n/a	n/a	n/a	n/a	n/a	n/a	n/a	n/a	n/a	n/a	n/a	n/a	n/a	n/a	n/a	n/a	34	1	2023-03-03_18h11.33.185	test_final	2022.2.4	60.26946479420882	n/a
NimStim_Database/Images/33M_NE_C.BMP	utils/practice/ScrambledFW_25M_NE_C.BMP	utils/practice/ScrambledBW_25M_NE_C.BMP	utils/practice/fake_prac4.jpg	utils/practice/fake_prac5.jpg	n/a	n/a	n/a	n/a	n/a	0.0	0.0	0.0	10.0	n/a	n/a	n/a	n/a	n/a	n/a	n/a	n/a	n/a	n/a	n/a	n/a	n/a	n/a	n/a	n/a	n/a	n/a	n/a	n/a	n/a	n/a	n/a	n/a	n/a	n/a	n/a	n/a	n/a	n/a	n/a	n/a	n/a	n/a	n/a	n/a	n/a	n/a	n/a	n/a	n/a	n/a	n/a	n/a	n/a	n/a	n/a	n/a	n/a	n/a	n/a	n/a	n/a	n/a	n/a	n/a	n/a	n/a	n/a	n/a	n/a	n/a	n/a	n/a	n/a	n/a	n/a	n/a	n/a	n/a	352.8744030999951	n/a	n/a	n/a	n/a	n/a	n/a	n/a	n/a	n/a	n/a	n/a	n/a	n/a	n/a	n/a	n/a	n/a	n/a	n/a	n/a	n/a	n/a	n/a	n/a	n/a	n/a	n/a	n/a	utils/practice/ScrambledFW_25M_NE_C.BMP	n/a	n/a	n/a	n/a	n/a	n/a	utils/practice/ScrambledBW_25M_NE_C.BMP	n/a	n/a	n/a	n/a	n/a	n/a	n/a	n/a	n/a	n/a	n/a	n/a	n/a	n/a	n/a	n/a	n/a	n/a	n/a	n/a	n/a	n/a	n/a	n/a	n/a	n/a	n/a	n/a	34	1	2023-03-03_18h11.33.185	test_final	2022.2.4	60.26946479420882	n/a
NimStim_Database/Images/01F_NE_O.BMP	utils/practice/ScrambledFW_28M_NE_O.BMP	utils/practice/ScrambledBW_28M_NE_O.BMP	utils/practice/fake_prac14.jpg	utils/practice/fake_prac8.jpg	n/a	n/a	n/a	n/a	n/a	0.0	1.0	1.0	12.0	0.0	0.0	0.0	0.0	n/a	n/a	n/a	n/a	n/a	n/a	n/a	n/a	n/a	n/a	n/a	n/a	n/a	n/a	n/a	n/a	n/a	n/a	n/a	n/a	n/a	n/a	n/a	n/a	n/a	n/a	n/a	n/a	n/a	n/a	n/a	n/a	n/a	n/a	n/a	n/a	n/a	n/a	n/a	n/a	n/a	354.88902910007164	357.18863769993186	2.289999999999994	n/a	n/a	n/a	n/a	n/a	n/a	n/a	n/a	n/a	n/a	n/a	n/a	n/a	n/a	n/a	n/a	n/a	n/a	n/a	n/a	n/a	n/a	n/a	n/a	n/a	n/a	n/a	357.18863769993186	357.30311869992875	357.30311869992875	357.3389979000204	357.3389979000204	357.4043738001492	357.4043738001492	357.4043738001492	357.4043738001492	357.4043738001492	357.4043738001492	357.4043738001492	left	n/a	n/a	n/a	n/a	0.6824541999958456	358.11876900005154	n/a	n/a	n/a	n/a	n/a	utils/practice/ScrambledFW_28M_NE_O.BMP	n/a	n/a	n/a	n/a	n/a	n/a	utils/practice/ScrambledBW_28M_NE_O.BMP	n/a	n/a	n/a	n/a	n/a	n/a	n/a	n/a	n/a	n/a	n/a	n/a	n/a	n/a	n/a	n/a	n/a	n/a	n/a	n/a	n/a	n/a	n/a	n/a	n/a	n/a	n/a	n/a	34	1	2023-03-03_18h11.33.185	test_final	2022.2.4	60.26946479420882	n/a
NimStim_Database/Images/01F_NE_O.BMP	utils/practice/ScrambledFW_28M_NE_O.BMP	utils/practice/ScrambledBW_28M_NE_O.BMP	utils/practice/fake_prac14.jpg	utils/practice/fake_prac8.jpg	n/a	n/a	n/a	n/a	n/a	0.0	1.0	1.0	12.0	n/a	n/a	n/a	n/a	n/a	n/a	n/a	n/a	0.0	0.0	0.0	0.0	n/a	n/a	n/a	n/a	n/a	n/a	n/a	n/a	n/a	n/a	n/a	n/a	n/a	n/a	n/a	n/a	n/a	n/a	n/a	n/a	n/a	n/a	n/a	n/a	n/a	n/a	n/a	n/a	n/a	n/a	n/a	n/a	n/a	n/a	n/a	n/a	n/a	n/a	n/a	n/a	n/a	n/a	n/a	n/a	n/a	n/a	359.1343215000816	359.1343215000816	2.0	1.4525521998293698	360.6160124000162	360.6160124000162	360.6160124000162	360.6160124000162	360.6160124000162	360.6160124000162	4.0	1.5111752999946475	n/a	n/a	n/a	n/a	n/a	n/a	n/a	n/a	n/a	n/a	n/a	n/a	n/a	n/a	n/a	n/a	n/a	n/a	n/a	n/a	n/a	n/a	n/a	n/a	n/a	n/a	n/a	n/a	n/a	utils/practice/ScrambledFW_28M_NE_O.BMP	n/a	n/a	n/a	n/a	n/a	n/a	utils/practice/ScrambledBW_28M_NE_O.BMP	n/a	n/a	n/a	n/a	n/a	n/a	n/a	n/a	n/a	n/a	n/a	n/a	n/a	n/a	n/a	n/a	n/a	n/a	n/a	n/a	n/a	n/a	n/a	n/a	n/a	n/a	n/a	n/a	34	1	2023-03-03_18h11.33.185	test_final	2022.2.4	60.26946479420882	n/a
NimStim_Database/Images/01F_NE_O.BMP	utils/practice/ScrambledFW_28M_NE_O.BMP	utils/practice/ScrambledBW_28M_NE_O.BMP	utils/practice/fake_prac14.jpg	utils/practice/fake_prac8.jpg	n/a	n/a	n/a	n/a	n/a	0.0	1.0	1.0	12.0	n/a	n/a	n/a	n/a	n/a	n/a	n/a	n/a	n/a	n/a	n/a	n/a	n/a	n/a	n/a	n/a	n/a	n/a	n/a	n/a	n/a	n/a	n/a	n/a	n/a	n/a	n/a	n/a	n/a	n/a	n/a	n/a	n/a	n/a	n/a	n/a	n/a	n/a	n/a	n/a	n/a	n/a	n/a	n/a	n/a	n/a	n/a	n/a	n/a	n/a	n/a	n/a	n/a	n/a	n/a	n/a	n/a	n/a	n/a	n/a	n/a	n/a	n/a	n/a	n/a	n/a	n/a	n/a	n/a	n/a	362.147729099961	n/a	n/a	n/a	n/a	n/a	n/a	n/a	n/a	n/a	n/a	n/a	n/a	n/a	n/a	n/a	n/a	n/a	n/a	n/a	n/a	n/a	n/a	n/a	n/a	n/a	n/a	n/a	n/a	utils/practice/ScrambledFW_28M_NE_O.BMP	n/a	n/a	n/a	n/a	n/a	n/a	utils/practice/ScrambledBW_28M_NE_O.BMP	n/a	n/a	n/a	n/a	n/a	n/a	n/a	n/a	n/a	n/a	n/a	n/a	n/a	n/a	n/a	n/a	n/a	n/a	n/a	n/a	n/a	n/a	n/a	n/a	n/a	n/a	n/a	n/a	34	1	2023-03-03_18h11.33.185	test_final	2022.2.4	60.26946479420882	n/a
NimStim_Database/Images/08F_NE_O.BMP	utils/practice/ScrambledFW_15F_NE_O.BMP	utils/practice/ScrambledBW_15F_NE_O.BMP	utils/practice/fake_prac9.jpg	utils/practice/real_prac5.jpg	n/a	n/a	n/a	n/a	n/a	0.0	2.0	2.0	6.0	0.0	0.0	0.0	0.0	n/a	n/a	n/a	n/a	n/a	n/a	n/a	n/a	n/a	n/a	n/a	n/a	n/a	n/a	n/a	n/a	n/a	n/a	n/a	n/a	n/a	n/a	n/a	n/a	n/a	n/a	n/a	n/a	n/a	n/a	n/a	n/a	n/a	n/a	n/a	n/a	n/a	n/a	n/a	n/a	n/a	364.162026300095	366.24536140006967	2.0799999999999983	n/a	n/a	n/a	n/a	n/a	n/a	n/a	n/a	n/a	n/a	n/a	n/a	n/a	n/a	n/a	n/a	n/a	n/a	n/a	n/a	n/a	n/a	n/a	n/a	n/a	n/a	n/a	366.24536140006967	366.3473678999581	366.3473678999581	366.3785776000004	366.3785776000004	366.4363414000254	366.4363414000254	366.4363414000254	366.4363414000254	366.4363414000254	366.4363414000254	366.4363414000254	left	n/a	n/a	n/a	n/a	0.5795179998967797	367.04239560011774	n/a	n/a	n/a	n/a	n/a	utils/practice/ScrambledFW_15F_NE_O.BMP	n/a	n/a	n/a	n/a	n/a	n/a	utils/practice/ScrambledBW_15F_NE_O.BMP	n/a	n/a	n/a	n/a	n/a	n/a	n/a	n/a	n/a	n/a	n/a	n/a	n/a	n/a	n/a	n/a	n/a	n/a	n/a	n/a	n/a	n/a	n/a	n/a	n/a	n/a	n/a	n/a	34	1	2023-03-03_18h11.33.185	test_final	2022.2.4	60.26946479420882	n/a
NimStim_Database/Images/08F_NE_O.BMP	utils/practice/ScrambledFW_15F_NE_O.BMP	utils/practice/ScrambledBW_15F_NE_O.BMP	utils/practice/fake_prac9.jpg	utils/practice/real_prac5.jpg	n/a	n/a	n/a	n/a	n/a	0.0	2.0	2.0	6.0	n/a	n/a	n/a	n/a	n/a	n/a	n/a	n/a	0.0	0.0	0.0	0.0	n/a	n/a	n/a	n/a	n/a	n/a	n/a	n/a	n/a	n/a	n/a	n/a	n/a	n/a	n/a	n/a	n/a	n/a	n/a	n/a	n/a	n/a	n/a	n/a	n/a	n/a	n/a	n/a	n/a	n/a	n/a	n/a	n/a	n/a	n/a	n/a	n/a	n/a	n/a	n/a	n/a	n/a	n/a	n/a	n/a	n/a	368.0576905000489	368.0576905000489	2.0	1.5820757998153567	369.6559707000852	369.6559707000852	369.6559707000852	369.6559707000852	369.6559707000852	369.6559707000852	1.0	0.8877270999364555	n/a	n/a	n/a	n/a	n/a	n/a	n/a	n/a	n/a	n/a	n/a	n/a	n/a	n/a	n/a	n/a	n/a	n/a	n/a	n/a	n/a	n/a	n/a	n/a	n/a	n/a	n/a	n/a	n/a	utils/practice/ScrambledFW_15F_NE_O.BMP	n/a	n/a	n/a	n/a	n/a	n/a	utils/practice/ScrambledBW_15F_NE_O.BMP	n/a	n/a	n/a	n/a	n/a	n/a	n/a	n/a	n/a	n/a	n/a	n/a	n/a	n/a	n/a	n/a	n/a	n/a	n/a	n/a	n/a	n/a	n/a	n/a	n/a	n/a	n/a	n/a	34	1	2023-03-03_18h11.33.185	test_final	2022.2.4	60.26946479420882	n/a
NimStim_Database/Images/08F_NE_O.BMP	utils/practice/ScrambledFW_15F_NE_O.BMP	utils/practice/ScrambledBW_15F_NE_O.BMP	utils/practice/fake_prac9.jpg	utils/practice/real_prac5.jpg	n/a	n/a	n/a	n/a	n/a	0.0	2.0	2.0	6.0	n/a	n/a	n/a	n/a	n/a	n/a	n/a	n/a	n/a	n/a	n/a	n/a	n/a	n/a	n/a	n/a	n/a	n/a	n/a	n/a	n/a	n/a	n/a	n/a	n/a	n/a	n/a	n/a	n/a	n/a	n/a	n/a	n/a	n/a	n/a	n/a	n/a	n/a	n/a	n/a	n/a	n/a	n/a	n/a	n/a	n/a	n/a	n/a	n/a	n/a	n/a	n/a	n/a	n/a	n/a	n/a	n/a	n/a	n/a	n/a	n/a	n/a	n/a	n/a	n/a	n/a	n/a	n/a	n/a	n/a	370.57181090000086	n/a	n/a	n/a	n/a	n/a	n/a	n/a	n/a	n/a	n/a	n/a	n/a	n/a	n/a	n/a	n/a	n/a	n/a	n/a	n/a	n/a	n/a	n/a	n/a	n/a	n/a	n/a	n/a	utils/practice/ScrambledFW_15F_NE_O.BMP	n/a	n/a	n/a	n/a	n/a	n/a	utils/practice/ScrambledBW_15F_NE_O.BMP	n/a	n/a	n/a	n/a	n/a	n/a	n/a	n/a	n/a	n/a	n/a	n/a	n/a	n/a	n/a	n/a	n/a	n/a	n/a	n/a	n/a	n/a	n/a	n/a	n/a	n/a	n/a	n/a	34	1	2023-03-03_18h11.33.185	test_final	2022.2.4	60.26946479420882	n/a
NimStim_Database/Images/37M_NE_C.BMP	utils/practice/ScrambledFW_24M_NE_C.BMP	utils/practice/ScrambledBW_24M_NE_C.BMP	utils/practice/real_prac7.jpg	utils/practice/real_prac14.jpg	n/a	n/a	n/a	n/a	n/a	0.0	3.0	3.0	9.0	n/a	n/a	n/a	n/a	0.0	0.0	0.0	0.0	n/a	n/a	n/a	n/a	n/a	n/a	n/a	n/a	n/a	n/a	n/a	n/a	n/a	n/a	n/a	n/a	n/a	n/a	n/a	n/a	n/a	n/a	n/a	n/a	n/a	n/a	n/a	n/a	n/a	n/a	n/a	n/a	n/a	n/a	n/a	n/a	n/a	372.58625750010833	374.8524446999654	2.2599999999999945	n/a	n/a	n/a	n/a	n/a	n/a	n/a	n/a	n/a	n/a	n/a	n/a	n/a	n/a	n/a	n/a	n/a	n/a	n/a	n/a	n/a	n/a	n/a	n/a	n/a	n/a	n/a	374.8524446999654	374.9689532001503	374.9689532001503	375.0024657000322	375.0024657000322	375.059832500061	375.059832500061	375.059832500061	375.059832500061	375.059832500061	375.059832500061	375.059832500061	None	375.7992118000984	375.7992118000984	space	2.3905562998261303	n/a	n/a	n/a	n/a	n/a	n/a	n/a	utils/practice/ScrambledFW_24M_NE_C.BMP	n/a	n/a	n/a	n/a	n/a	n/a	utils/practice/ScrambledBW_24M_NE_C.BMP	n/a	n/a	n/a	n/a	n/a	n/a	n/a	n/a	n/a	n/a	n/a	n/a	n/a	n/a	n/a	n/a	n/a	n/a	n/a	n/a	n/a	n/a	n/a	n/a	n/a	n/a	n/a	n/a	34	1	2023-03-03_18h11.33.185	test_final	2022.2.4	60.26946479420882	n/a
NimStim_Database/Images/37M_NE_C.BMP	utils/practice/ScrambledFW_24M_NE_C.BMP	utils/practice/ScrambledBW_24M_NE_C.BMP	utils/practice/real_prac7.jpg	utils/practice/real_prac14.jpg	n/a	n/a	n/a	n/a	n/a	0.0	3.0	3.0	9.0	n/a	n/a	n/a	n/a	n/a	n/a	n/a	n/a	n/a	n/a	n/a	n/a	n/a	n/a	n/a	n/a	n/a	n/a	n/a	n/a	n/a	n/a	n/a	n/a	n/a	n/a	n/a	n/a	n/a	n/a	n/a	n/a	n/a	n/a	n/a	n/a	n/a	n/a	n/a	n/a	n/a	n/a	n/a	n/a	n/a	n/a	n/a	n/a	n/a	n/a	n/a	n/a	n/a	n/a	n/a	n/a	n/a	n/a	n/a	n/a	n/a	n/a	n/a	n/a	n/a	n/a	n/a	n/a	n/a	n/a	378.2131431000307	n/a	n/a	n/a	n/a	n/a	n/a	n/a	n/a	n/a	n/a	n/a	n/a	n/a	n/a	n/a	n/a	n/a	n/a	n/a	n/a	n/a	n/a	n/a	n/a	n/a	n/a	n/a	n/a	utils/practice/ScrambledFW_24M_NE_C.BMP	n/a	n/a	n/a	n/a	n/a	n/a	utils/practice/ScrambledBW_24M_NE_C.BMP	n/a	n/a	n/a	n/a	n/a	n/a	n/a	n/a	n/a	n/a	n/a	n/a	n/a	n/a	n/a	n/a	n/a	n/a	n/a	n/a	n/a	n/a	n/a	n/a	n/a	n/a	n/a	n/a	34	1	2023-03-03_18h11.33.185	test_final	2022.2.4	60.26946479420882	n/a
NimStim_Database/Images/24M_NE_C.BMP	utils/practice/ScrambledFW_43M_NE_O.BMP	utils/practice/ScrambledBW_43M_NE_O.BMP	utils/practice/fake_prac13.jpg	utils/practice/real_prac12.jpg	n/a	n/a	n/a	n/a	n/a	0.0	4.0	4.0	15.0	0.0	0.0	0.0	0.0	n/a	n/a	n/a	n/a	n/a	n/a	n/a	n/a	n/a	n/a	n/a	n/a	n/a	n/a	n/a	n/a	n/a	n/a	n/a	n/a	n/a	n/a	n/a	n/a	n/a	n/a	n/a	n/a	n/a	n/a	n/a	n/a	n/a	n/a	n/a	n/a	n/a	n/a	n/a	n/a	n/a	380.2278869000729	382.6607840999495	2.419999999999991	n/a	n/a	n/a	n/a	n/a	n/a	n/a	n/a	n/a	n/a	n/a	n/a	n/a	n/a	n/a	n/a	n/a	n/a	n/a	n/a	n/a	n/a	n/a	n/a	n/a	n/a	n/a	382.6607840999495	382.7938304999843	382.7938304999843	382.8266749000177	382.8266749000177	382.8845031000674	382.8845031000674	382.8845031000674	382.8845031000674	382.8845031000674	382.8845031000674	382.8845031000674	left	n/a	n/a	n/a	n/a	0.5140086999163032	383.4244011000264	n/a	n/a	n/a	n/a	n/a	utils/practice/ScrambledFW_43M_NE_O.BMP	n/a	n/a	n/a	n/a	n/a	n/a	utils/practice/ScrambledBW_43M_NE_O.BMP	n/a	n/a	n/a	n/a	n/a	n/a	n/a	n/a	n/a	n/a	n/a	n/a	n/a	n/a	n/a	n/a	n/a	n/a	n/a	n/a	n/a	n/a	n/a	n/a	n/a	n/a	n/a	n/a	34	1	2023-03-03_18h11.33.185	test_final	2022.2.4	60.26946479420882	n/a
NimStim_Database/Images/24M_NE_C.BMP	utils/practice/ScrambledFW_43M_NE_O.BMP	utils/practice/ScrambledBW_43M_NE_O.BMP	utils/practice/fake_prac13.jpg	utils/practice/real_prac12.jpg	n/a	n/a	n/a	n/a	n/a	0.0	4.0	4.0	15.0	n/a	n/a	n/a	n/a	n/a	n/a	n/a	n/a	0.0	0.0	0.0	0.0	n/a	n/a	n/a	n/a	n/a	n/a	n/a	n/a	n/a	n/a	n/a	n/a	n/a	n/a	n/a	n/a	n/a	n/a	n/a	n/a	n/a	n/a	n/a	n/a	n/a	n/a	n/a	n/a	n/a	n/a	n/a	n/a	n/a	n/a	n/a	n/a	n/a	n/a	n/a	n/a	n/a	n/a	n/a	n/a	n/a	n/a	384.43982560001314	384.43982560001314	1.0	1.386442800052464	385.8549802999478	385.8549802999478	385.8549802999478	385.8549802999478	385.8549802999478	385.8549802999478	4.0	1.120177399832755	n/a	n/a	n/a	n/a	n/a	n/a	n/a	n/a	n/a	n/a	n/a	n/a	n/a	n/a	n/a	n/a	n/a	n/a	n/a	n/a	n/a	n/a	n/a	n/a	n/a	n/a	n/a	n/a	n/a	utils/practice/ScrambledFW_43M_NE_O.BMP	n/a	n/a	n/a	n/a	n/a	n/a	utils/practice/ScrambledBW_43M_NE_O.BMP	n/a	n/a	n/a	n/a	n/a	n/a	n/a	n/a	n/a	n/a	n/a	n/a	n/a	n/a	n/a	n/a	n/a	n/a	n/a	n/a	n/a	n/a	n/a	n/a	n/a	n/a	n/a	n/a	34	1	2023-03-03_18h11.33.185	test_final	2022.2.4	60.26946479420882	n/a
NimStim_Database/Images/24M_NE_C.BMP	utils/practice/ScrambledFW_43M_NE_O.BMP	utils/practice/ScrambledBW_43M_NE_O.BMP	utils/practice/fake_prac13.jpg	utils/practice/real_prac12.jpg	n/a	n/a	n/a	n/a	n/a	0.0	4.0	4.0	15.0	n/a	n/a	n/a	n/a	n/a	n/a	n/a	n/a	n/a	n/a	n/a	n/a	n/a	n/a	n/a	n/a	n/a	n/a	n/a	n/a	n/a	n/a	n/a	n/a	n/a	n/a	n/a	n/a	n/a	n/a	n/a	n/a	n/a	n/a	n/a	n/a	n/a	n/a	n/a	n/a	n/a	n/a	n/a	n/a	n/a	n/a	n/a	n/a	n/a	n/a	n/a	n/a	n/a	n/a	n/a	n/a	n/a	n/a	n/a	n/a	n/a	n/a	n/a	n/a	n/a	n/a	n/a	n/a	n/a	n/a	387.0038203999866	n/a	n/a	n/a	n/a	n/a	n/a	n/a	n/a	n/a	n/a	n/a	n/a	n/a	n/a	n/a	n/a	n/a	n/a	n/a	n/a	n/a	n/a	n/a	n/a	n/a	n/a	n/a	n/a	utils/practice/ScrambledFW_43M_NE_O.BMP	n/a	n/a	n/a	n/a	n/a	n/a	utils/practice/ScrambledBW_43M_NE_O.BMP	n/a	n/a	n/a	n/a	n/a	n/a	n/a	n/a	n/a	n/a	n/a	n/a	n/a	n/a	n/a	n/a	n/a	n/a	n/a	n/a	n/a	n/a	n/a	n/a	n/a	n/a	n/a	n/a	34	1	2023-03-03_18h11.33.185	test_final	2022.2.4	60.26946479420882	n/a
NimStim_Database/Images/12F_NE_C.BMP	utils/practice/ScrambledFW_03F_NE_O.BMP	utils/practice/ScrambledBW_03F_NE_O.BMP	utils/practice/real_prac9.jpg	utils/practice/real_prac13.jpg	n/a	n/a	n/a	n/a	n/a	0.0	5.0	5.0	1.0	0.0	0.0	0.0	0.0	n/a	n/a	n/a	n/a	n/a	n/a	n/a	n/a	n/a	n/a	n/a	n/a	n/a	n/a	n/a	n/a	n/a	n/a	n/a	n/a	n/a	n/a	n/a	n/a	n/a	n/a	n/a	n/a	n/a	n/a	n/a	n/a	n/a	n/a	n/a	n/a	n/a	n/a	n/a	n/a	n/a	389.0183701000642	391.0512705000583	2.03	n/a	n/a	n/a	n/a	n/a	n/a	n/a	n/a	n/a	n/a	n/a	n/a	n/a	n/a	n/a	n/a	n/a	n/a	n/a	n/a	n/a	n/a	n/a	n/a	n/a	n/a	n/a	391.0512705000583	391.1680306000635	391.1680306000635	391.2009179000743	391.2009179000743	391.258254900109	391.258254900109	391.258254900109	391.258254900109	391.258254900109	391.258254900109	391.258254900109	right	n/a	n/a	n/a	n/a	0.4855234997812658	391.7652404000983	n/a	n/a	n/a	n/a	n/a	utils/practice/ScrambledFW_03F_NE_O.BMP	n/a	n/a	n/a	n/a	n/a	n/a	utils/practice/ScrambledBW_03F_NE_O.BMP	n/a	n/a	n/a	n/a	n/a	n/a	n/a	n/a	n/a	n/a	n/a	n/a	n/a	n/a	n/a	n/a	n/a	n/a	n/a	n/a	n/a	n/a	n/a	n/a	n/a	n/a	n/a	n/a	34	1	2023-03-03_18h11.33.185	test_final	2022.2.4	60.26946479420882	n/a
NimStim_Database/Images/12F_NE_C.BMP	utils/practice/ScrambledFW_03F_NE_O.BMP	utils/practice/ScrambledBW_03F_NE_O.BMP	utils/practice/real_prac9.jpg	utils/practice/real_prac13.jpg	n/a	n/a	n/a	n/a	n/a	0.0	5.0	5.0	1.0	n/a	n/a	n/a	n/a	n/a	n/a	n/a	n/a	0.0	0.0	0.0	0.0	n/a	n/a	n/a	n/a	n/a	n/a	n/a	n/a	n/a	n/a	n/a	n/a	n/a	n/a	n/a	n/a	n/a	n/a	n/a	n/a	n/a	n/a	n/a	n/a	n/a	n/a	n/a	n/a	n/a	n/a	n/a	n/a	n/a	n/a	n/a	n/a	n/a	n/a	n/a	n/a	n/a	n/a	n/a	n/a	n/a	n/a	392.78080249996856	392.78080249996856	1.0	1.297588599845767	394.0960236999672	394.0960236999672	394.0960236999672	394.0960236999672	394.0960236999672	394.0960236999672	1.0	0.8190569998696446	n/a	n/a	n/a	n/a	n/a	n/a	n/a	n/a	n/a	n/a	n/a	n/a	n/a	n/a	n/a	n/a	n/a	n/a	n/a	n/a	n/a	n/a	n/a	n/a	n/a	n/a	n/a	n/a	n/a	utils/practice/ScrambledFW_03F_NE_O.BMP	n/a	n/a	n/a	n/a	n/a	n/a	utils/practice/ScrambledBW_03F_NE_O.BMP	n/a	n/a	n/a	n/a	n/a	n/a	n/a	n/a	n/a	n/a	n/a	n/a	n/a	n/a	n/a	n/a	n/a	n/a	n/a	n/a	n/a	n/a	n/a	n/a	n/a	n/a	n/a	n/a	34	1	2023-03-03_18h11.33.185	test_final	2022.2.4	60.26946479420882	n/a
NimStim_Database/Images/12F_NE_C.BMP	utils/practice/ScrambledFW_03F_NE_O.BMP	utils/practice/ScrambledBW_03F_NE_O.BMP	utils/practice/real_prac9.jpg	utils/practice/real_prac13.jpg	n/a	n/a	n/a	n/a	n/a	0.0	5.0	5.0	1.0	n/a	n/a	n/a	n/a	n/a	n/a	n/a	n/a	n/a	n/a	n/a	n/a	n/a	n/a	n/a	n/a	n/a	n/a	n/a	n/a	n/a	n/a	n/a	n/a	n/a	n/a	n/a	n/a	n/a	n/a	n/a	n/a	n/a	n/a	n/a	n/a	n/a	n/a	n/a	n/a	n/a	n/a	n/a	n/a	n/a	n/a	n/a	n/a	n/a	n/a	n/a	n/a	n/a	n/a	n/a	n/a	n/a	n/a	n/a	n/a	n/a	n/a	n/a	n/a	n/a	n/a	n/a	n/a	n/a	n/a	394.9448262001388	n/a	n/a	n/a	n/a	n/a	n/a	n/a	n/a	n/a	n/a	n/a	n/a	n/a	n/a	n/a	n/a	n/a	n/a	n/a	n/a	n/a	n/a	n/a	n/a	n/a	n/a	n/a	n/a	utils/practice/ScrambledFW_03F_NE_O.BMP	n/a	n/a	n/a	n/a	n/a	n/a	utils/practice/ScrambledBW_03F_NE_O.BMP	n/a	n/a	n/a	n/a	n/a	n/a	n/a	n/a	n/a	n/a	n/a	n/a	n/a	n/a	n/a	n/a	n/a	n/a	n/a	n/a	n/a	n/a	n/a	n/a	n/a	n/a	n/a	n/a	34	1	2023-03-03_18h11.33.185	test_final	2022.2.4	60.26946479420882	n/a
NimStim_Database/Images/28M_NE_O.BMP	utils/practice/ScrambledFW_12F_NE_C.BMP	utils/practice/ScrambledBW_12F_NE_C.BMP	utils/practice/fake_prac3.jpg	utils/practice/fake_prac10.jpg	n/a	n/a	n/a	n/a	n/a	0.0	6.0	6.0	5.0	0.0	0.0	0.0	0.0	n/a	n/a	n/a	n/a	n/a	n/a	n/a	n/a	n/a	n/a	n/a	n/a	n/a	n/a	n/a	n/a	n/a	n/a	n/a	n/a	n/a	n/a	n/a	n/a	n/a	n/a	n/a	n/a	n/a	n/a	n/a	n/a	n/a	n/a	n/a	n/a	n/a	n/a	n/a	n/a	n/a	396.9595133000985	399.32590029994026	2.3499999999999925	n/a	n/a	n/a	n/a	n/a	n/a	n/a	n/a	n/a	n/a	n/a	n/a	n/a	n/a	n/a	n/a	n/a	n/a	n/a	n/a	n/a	n/a	n/a	n/a	n/a	n/a	n/a	399.32590029994026	399.4566752000246	399.4566752000246	399.4921516999602	399.4921516999602	399.553307400085	399.553307400085	399.553307400085	399.553307400085	399.553307400085	399.553307400085	399.553307400085	left	n/a	n/a	n/a	n/a	0.5228078998625278	400.10576379997656	n/a	n/a	n/a	n/a	n/a	utils/practice/ScrambledFW_12F_NE_C.BMP	n/a	n/a	n/a	n/a	n/a	n/a	utils/practice/ScrambledBW_12F_NE_C.BMP	n/a	n/a	n/a	n/a	n/a	n/a	n/a	n/a	n/a	n/a	n/a	n/a	n/a	n/a	n/a	n/a	n/a	n/a	n/a	n/a	n/a	n/a	n/a	n/a	n/a	n/a	n/a	n/a	34	1	2023-03-03_18h11.33.185	test_final	2022.2.4	60.26946479420882	n/a
NimStim_Database/Images/28M_NE_O.BMP	utils/practice/ScrambledFW_12F_NE_C.BMP	utils/practice/ScrambledBW_12F_NE_C.BMP	utils/practice/fake_prac3.jpg	utils/practice/fake_prac10.jpg	n/a	n/a	n/a	n/a	n/a	0.0	6.0	6.0	5.0	n/a	n/a	n/a	n/a	n/a	n/a	n/a	n/a	0.0	0.0	0.0	0.0	n/a	n/a	n/a	n/a	n/a	n/a	n/a	n/a	n/a	n/a	n/a	n/a	n/a	n/a	n/a	n/a	n/a	n/a	n/a	n/a	n/a	n/a	n/a	n/a	n/a	n/a	n/a	n/a	n/a	n/a	n/a	n/a	n/a	n/a	n/a	n/a	n/a	n/a	n/a	n/a	n/a	n/a	n/a	n/a	n/a	n/a	401.12163390009664	401.12163390009664	1.0	1.1002531999256462	402.25365389999934	402.25365389999934	402.25365389999934	402.25365389999934	402.25365389999934	402.25365389999934	4.0	1.10140569973737	n/a	n/a	n/a	n/a	n/a	n/a	n/a	n/a	n/a	n/a	n/a	n/a	n/a	n/a	n/a	n/a	n/a	n/a	n/a	n/a	n/a	n/a	n/a	n/a	n/a	n/a	n/a	n/a	n/a	utils/practice/ScrambledFW_12F_NE_C.BMP	n/a	n/a	n/a	n/a	n/a	n/a	utils/practice/ScrambledBW_12F_NE_C.BMP	n/a	n/a	n/a	n/a	n/a	n/a	n/a	n/a	n/a	n/a	n/a	n/a	n/a	n/a	n/a	n/a	n/a	n/a	n/a	n/a	n/a	n/a	n/a	n/a	n/a	n/a	n/a	n/a	34	1	2023-03-03_18h11.33.185	test_final	2022.2.4	60.26946479420882	n/a
NimStim_Database/Images/28M_NE_O.BMP	utils/practice/ScrambledFW_12F_NE_C.BMP	utils/practice/ScrambledBW_12F_NE_C.BMP	utils/practice/fake_prac3.jpg	utils/practice/fake_prac10.jpg	n/a	n/a	n/a	n/a	n/a	0.0	6.0	6.0	5.0	n/a	n/a	n/a	n/a	n/a	n/a	n/a	n/a	n/a	n/a	n/a	n/a	n/a	n/a	n/a	n/a	n/a	n/a	n/a	n/a	n/a	n/a	n/a	n/a	n/a	n/a	n/a	n/a	n/a	n/a	n/a	n/a	n/a	n/a	n/a	n/a	n/a	n/a	n/a	n/a	n/a	n/a	n/a	n/a	n/a	n/a	n/a	n/a	n/a	n/a	n/a	n/a	n/a	n/a	n/a	n/a	n/a	n/a	n/a	n/a	n/a	n/a	n/a	n/a	n/a	n/a	n/a	n/a	n/a	n/a	403.3857343001291	n/a	n/a	n/a	n/a	n/a	n/a	n/a	n/a	n/a	n/a	n/a	n/a	n/a	n/a	n/a	n/a	n/a	n/a	n/a	n/a	n/a	n/a	n/a	n/a	n/a	n/a	n/a	n/a	utils/practice/ScrambledFW_12F_NE_C.BMP	n/a	n/a	n/a	n/a	n/a	n/a	utils/practice/ScrambledBW_12F_NE_C.BMP	n/a	n/a	n/a	n/a	n/a	n/a	n/a	n/a	n/a	n/a	n/a	n/a	n/a	n/a	n/a	n/a	n/a	n/a	n/a	n/a	n/a	n/a	n/a	n/a	n/a	n/a	n/a	n/a	34	1	2023-03-03_18h11.33.185	test_final	2022.2.4	60.26946479420882	n/a
NimStim_Database/Images/43M_NE_O.BMP	utils/practice/ScrambledFW_11F_NE_C.BMP	utils/practice/ScrambledBW_11F_NE_C.BMP	utils/practice/real_prac11.jpg	utils/practice/fake_prac11.jpg	n/a	n/a	n/a	n/a	n/a	0.0	7.0	7.0	4.0	n/a	n/a	n/a	n/a	0.0	0.0	0.0	0.0	n/a	n/a	n/a	n/a	n/a	n/a	n/a	n/a	n/a	n/a	n/a	n/a	n/a	n/a	n/a	n/a	n/a	n/a	n/a	n/a	n/a	n/a	n/a	n/a	n/a	n/a	n/a	n/a	n/a	n/a	n/a	n/a	n/a	n/a	n/a	n/a	n/a	405.3999739999417	407.5184387001209	2.099999999999998	n/a	n/a	n/a	n/a	n/a	n/a	n/a	n/a	n/a	n/a	n/a	n/a	n/a	n/a	n/a	n/a	n/a	n/a	n/a	n/a	n/a	n/a	n/a	n/a	n/a	n/a	n/a	407.5184387001209	407.6498767000157	407.6498767000157	407.6818111999892	407.6818111999892	407.7401676999871	407.7401676999871	407.7401676999871	407.7401676999871	407.7401676999871	407.7401676999871	407.7401676999871	None	408.4799363000784	408.4799363000784	space	0.9804903997574002	n/a	n/a	n/a	n/a	n/a	n/a	n/a	utils/practice/ScrambledFW_11F_NE_C.BMP	n/a	n/a	n/a	n/a	n/a	n/a	utils/practice/ScrambledBW_11F_NE_C.BMP	n/a	n/a	n/a	n/a	n/a	n/a	n/a	n/a	n/a	n/a	n/a	n/a	n/a	n/a	n/a	n/a	n/a	n/a	n/a	n/a	n/a	n/a	n/a	n/a	n/a	n/a	n/a	n/a	34	1	2023-03-03_18h11.33.185	test_final	2022.2.4	60.26946479420882	n/a
NimStim_Database/Images/43M_NE_O.BMP	utils/practice/ScrambledFW_11F_NE_C.BMP	utils/practice/ScrambledBW_11F_NE_C.BMP	utils/practice/real_prac11.jpg	utils/practice/fake_prac11.jpg	n/a	n/a	n/a	n/a	n/a	0.0	7.0	7.0	4.0	n/a	n/a	n/a	n/a	n/a	n/a	n/a	n/a	n/a	n/a	n/a	n/a	n/a	n/a	n/a	n/a	n/a	n/a	n/a	n/a	n/a	n/a	n/a	n/a	n/a	n/a	n/a	n/a	n/a	n/a	n/a	n/a	n/a	n/a	n/a	n/a	n/a	n/a	n/a	n/a	n/a	n/a	n/a	n/a	n/a	n/a	n/a	n/a	n/a	n/a	n/a	n/a	n/a	n/a	n/a	n/a	n/a	n/a	n/a	n/a	n/a	n/a	n/a	n/a	n/a	n/a	n/a	n/a	n/a	n/a	409.4788263000082	n/a	n/a	n/a	n/a	n/a	n/a	n/a	n/a	n/a	n/a	n/a	n/a	n/a	n/a	n/a	n/a	n/a	n/a	n/a	n/a	n/a	n/a	n/a	n/a	n/a	n/a	n/a	n/a	utils/practice/ScrambledFW_11F_NE_C.BMP	n/a	n/a	n/a	n/a	n/a	n/a	utils/practice/ScrambledBW_11F_NE_C.BMP	n/a	n/a	n/a	n/a	n/a	n/a	n/a	n/a	n/a	n/a	n/a	n/a	n/a	n/a	n/a	n/a	n/a	n/a	n/a	n/a	n/a	n/a	n/a	n/a	n/a	n/a	n/a	n/a	34	1	2023-03-03_18h11.33.185	test_final	2022.2.4	60.26946479420882	n/a
NimStim_Database/Images/16F_NE_O.BMP	utils/practice/ScrambledFW_16F_NE_O.BMP	utils/practice/ScrambledBW_16F_NE_O.BMP	utils/practice/fake_prac6.jpg	utils/practice/fake_prac15.jpg	n/a	n/a	n/a	n/a	n/a	0.0	8.0	8.0	7.0	0.0	0.0	0.0	0.0	n/a	n/a	n/a	n/a	n/a	n/a	n/a	n/a	n/a	n/a	n/a	n/a	n/a	n/a	n/a	n/a	n/a	n/a	n/a	n/a	n/a	n/a	n/a	n/a	n/a	n/a	n/a	n/a	n/a	n/a	n/a	n/a	n/a	n/a	n/a	n/a	n/a	n/a	n/a	n/a	n/a	411.4935129000805	413.8794005000964	2.379999999999992	n/a	n/a	n/a	n/a	n/a	n/a	n/a	n/a	n/a	n/a	n/a	n/a	n/a	n/a	n/a	n/a	n/a	n/a	n/a	n/a	n/a	n/a	n/a	n/a	n/a	n/a	n/a	413.8794005000964	413.99273169995286	413.99273169995286	414.0253489001189	414.0253489001189	414.0853438000195	414.0853438000195	414.0853438000195	414.0853438000195	414.0853438000195	414.0853438000195	414.0853438000195	left	n/a	n/a	n/a	n/a	0.6534370000008494	414.7566629999783	n/a	n/a	n/a	n/a	n/a	utils/practice/ScrambledFW_16F_NE_O.BMP	n/a	n/a	n/a	n/a	n/a	n/a	utils/practice/ScrambledBW_16F_NE_O.BMP	n/a	n/a	n/a	n/a	n/a	n/a	n/a	n/a	n/a	n/a	n/a	n/a	n/a	n/a	n/a	n/a	n/a	n/a	n/a	n/a	n/a	n/a	n/a	n/a	n/a	n/a	n/a	n/a	34	1	2023-03-03_18h11.33.185	test_final	2022.2.4	60.26946479420882	n/a
NimStim_Database/Images/16F_NE_O.BMP	utils/practice/ScrambledFW_16F_NE_O.BMP	utils/practice/ScrambledBW_16F_NE_O.BMP	utils/practice/fake_prac6.jpg	utils/practice/fake_prac15.jpg	n/a	n/a	n/a	n/a	n/a	0.0	8.0	8.0	7.0	n/a	n/a	n/a	n/a	n/a	n/a	n/a	n/a	0.0	0.0	0.0	0.0	n/a	n/a	n/a	n/a	n/a	n/a	n/a	n/a	n/a	n/a	n/a	n/a	n/a	n/a	n/a	n/a	n/a	n/a	n/a	n/a	n/a	n/a	n/a	n/a	n/a	n/a	n/a	n/a	n/a	n/a	n/a	n/a	n/a	n/a	n/a	n/a	n/a	n/a	n/a	n/a	n/a	n/a	n/a	n/a	n/a	n/a	415.7721911999397	415.7721911999397	4.0	2.6181563998106867	418.4189848001115	418.4189848001115	418.4189848001115	418.4189848001115	418.4189848001115	418.4189848001115	1.0	1.4124793999362737	n/a	n/a	n/a	n/a	n/a	n/a	n/a	n/a	n/a	n/a	n/a	n/a	n/a	n/a	n/a	n/a	n/a	n/a	n/a	n/a	n/a	n/a	n/a	n/a	n/a	n/a	n/a	n/a	n/a	utils/practice/ScrambledFW_16F_NE_O.BMP	n/a	n/a	n/a	n/a	n/a	n/a	utils/practice/ScrambledBW_16F_NE_O.BMP	n/a	n/a	n/a	n/a	n/a	n/a	n/a	n/a	n/a	n/a	n/a	n/a	n/a	n/a	n/a	n/a	n/a	n/a	n/a	n/a	n/a	n/a	n/a	n/a	n/a	n/a	n/a	n/a	34	1	2023-03-03_18h11.33.185	test_final	2022.2.4	60.26946479420882	n/a
NimStim_Database/Images/16F_NE_O.BMP	utils/practice/ScrambledFW_16F_NE_O.BMP	utils/practice/ScrambledBW_16F_NE_O.BMP	utils/practice/fake_prac6.jpg	utils/practice/fake_prac15.jpg	n/a	n/a	n/a	n/a	n/a	0.0	8.0	8.0	7.0	n/a	n/a	n/a	n/a	n/a	n/a	n/a	n/a	n/a	n/a	n/a	n/a	n/a	n/a	n/a	n/a	n/a	n/a	n/a	n/a	n/a	n/a	n/a	n/a	n/a	n/a	n/a	n/a	n/a	n/a	n/a	n/a	n/a	n/a	n/a	n/a	n/a	n/a	n/a	n/a	n/a	n/a	n/a	n/a	n/a	n/a	n/a	n/a	n/a	n/a	n/a	n/a	n/a	n/a	n/a	n/a	n/a	n/a	n/a	n/a	n/a	n/a	n/a	n/a	n/a	n/a	n/a	n/a	n/a	n/a	419.85097509995103	n/a	n/a	n/a	n/a	n/a	n/a	n/a	n/a	n/a	n/a	n/a	n/a	n/a	n/a	n/a	n/a	n/a	n/a	n/a	n/a	n/a	n/a	n/a	n/a	n/a	n/a	n/a	n/a	utils/practice/ScrambledFW_16F_NE_O.BMP	n/a	n/a	n/a	n/a	n/a	n/a	utils/practice/ScrambledBW_16F_NE_O.BMP	n/a	n/a	n/a	n/a	n/a	n/a	n/a	n/a	n/a	n/a	n/a	n/a	n/a	n/a	n/a	n/a	n/a	n/a	n/a	n/a	n/a	n/a	n/a	n/a	n/a	n/a	n/a	n/a	34	1	2023-03-03_18h11.33.185	test_final	2022.2.4	60.26946479420882	n/a
NimStim_Database/Images/28M_NE_C.BMP	utils/practice/ScrambledFW_33M_NE_C.BMP	utils/practice/ScrambledBW_33M_NE_C.BMP	utils/practice/real_prac2.jpg	utils/practice/fake_prac16.jpg	n/a	n/a	n/a	n/a	n/a	0.0	9.0	9.0	13.0	0.0	0.0	0.0	0.0	n/a	n/a	n/a	n/a	n/a	n/a	n/a	n/a	n/a	n/a	n/a	n/a	n/a	n/a	n/a	n/a	n/a	n/a	n/a	n/a	n/a	n/a	n/a	n/a	n/a	n/a	n/a	n/a	n/a	n/a	n/a	n/a	n/a	n/a	n/a	n/a	n/a	n/a	n/a	n/a	n/a	421.8653424000368	423.898572999984	2.02	n/a	n/a	n/a	n/a	n/a	n/a	n/a	n/a	n/a	n/a	n/a	n/a	n/a	n/a	n/a	n/a	n/a	n/a	n/a	n/a	n/a	n/a	n/a	n/a	n/a	n/a	n/a	423.898572999984	424.0506486999802	424.0506486999802	424.0822785999626	424.0822785999626	424.14224319998175	424.14224319998175	424.14224319998175	424.14224319998175	424.14224319998175	424.14224319998175	424.14224319998175	left	n/a	n/a	n/a	n/a	0.6398834998253733	424.8120131001342	425.8108753000852	n/a	n/a	n/a	n/a	utils/practice/ScrambledFW_33M_NE_C.BMP	n/a	n/a	n/a	n/a	n/a	n/a	utils/practice/ScrambledBW_33M_NE_C.BMP	n/a	n/a	n/a	n/a	n/a	n/a	n/a	n/a	n/a	n/a	n/a	n/a	n/a	n/a	n/a	n/a	n/a	n/a	n/a	n/a	n/a	n/a	n/a	n/a	n/a	n/a	n/a	n/a	34	1	2023-03-03_18h11.33.185	test_final	2022.2.4	60.26946479420882	n/a
NimStim_Database/Images/28M_NE_C.BMP	utils/practice/ScrambledFW_33M_NE_C.BMP	utils/practice/ScrambledBW_33M_NE_C.BMP	utils/practice/real_prac2.jpg	utils/practice/fake_prac16.jpg	n/a	n/a	n/a	n/a	n/a	0.0	9.0	9.0	13.0	n/a	n/a	n/a	n/a	n/a	n/a	n/a	n/a	0.0	0.0	0.0	0.0	n/a	n/a	n/a	n/a	n/a	n/a	n/a	n/a	n/a	n/a	n/a	n/a	n/a	n/a	n/a	n/a	n/a	n/a	n/a	n/a	n/a	n/a	n/a	n/a	n/a	n/a	n/a	n/a	n/a	n/a	n/a	n/a	n/a	n/a	n/a	n/a	n/a	n/a	n/a	n/a	n/a	n/a	n/a	n/a	n/a	n/a	425.8108753000852	425.8108753000852	4.0	2.790988399880007	428.6247519000899	428.6247519000899	428.6247519000899	428.6247519000899	428.6247519000899	428.6247519000899	4.0	0.919901699759066	n/a	n/a	n/a	n/a	n/a	n/a	n/a	n/a	n/a	n/a	n/a	n/a	n/a	n/a	n/a	n/a	n/a	n/a	n/a	n/a	n/a	n/a	n/a	n/a	n/a	n/a	n/a	n/a	n/a	utils/practice/ScrambledFW_33M_NE_C.BMP	n/a	n/a	n/a	n/a	n/a	n/a	utils/practice/ScrambledBW_33M_NE_C.BMP	n/a	n/a	n/a	n/a	n/a	n/a	n/a	n/a	n/a	n/a	n/a	n/a	n/a	n/a	n/a	n/a	n/a	n/a	n/a	n/a	n/a	n/a	n/a	n/a	n/a	n/a	n/a	n/a	34	1	2023-03-03_18h11.33.185	test_final	2022.2.4	60.26946479420882	n/a
NimStim_Database/Images/28M_NE_C.BMP	utils/practice/ScrambledFW_33M_NE_C.BMP	utils/practice/ScrambledBW_33M_NE_C.BMP	utils/practice/real_prac2.jpg	utils/practice/fake_prac16.jpg	n/a	n/a	n/a	n/a	n/a	0.0	9.0	9.0	13.0	n/a	n/a	n/a	n/a	n/a	n/a	n/a	n/a	n/a	n/a	n/a	n/a	n/a	n/a	n/a	n/a	n/a	n/a	n/a	n/a	n/a	n/a	n/a	n/a	n/a	n/a	n/a	n/a	n/a	n/a	n/a	n/a	n/a	n/a	n/a	n/a	n/a	n/a	n/a	n/a	n/a	n/a	n/a	n/a	n/a	n/a	n/a	n/a	n/a	n/a	n/a	n/a	n/a	n/a	n/a	n/a	n/a	n/a	n/a	n/a	n/a	n/a	n/a	n/a	n/a	n/a	n/a	n/a	n/a	n/a	429.5736189000309	n/a	n/a	n/a	n/a	n/a	n/a	n/a	n/a	n/a	n/a	n/a	n/a	n/a	n/a	n/a	n/a	n/a	n/a	n/a	n/a	n/a	n/a	n/a	n/a	n/a	n/a	n/a	n/a	utils/practice/ScrambledFW_33M_NE_C.BMP	n/a	n/a	n/a	n/a	n/a	n/a	utils/practice/ScrambledBW_33M_NE_C.BMP	n/a	n/a	n/a	n/a	n/a	n/a	n/a	n/a	n/a	n/a	n/a	n/a	n/a	n/a	n/a	n/a	n/a	n/a	n/a	n/a	n/a	n/a	n/a	n/a	n/a	n/a	n/a	n/a	34	1	2023-03-03_18h11.33.185	test_final	2022.2.4	60.26946479420882	n/a
NimStim_Database/Images/23M_NE_C.BMP	utils/practice/ScrambledFW_28M_NE_C.BMP	utils/practice/ScrambledBW_28M_NE_C.BMP	utils/practice/real_prac8.jpg	utils/practice/real_prac3.jpg	n/a	n/a	n/a	n/a	n/a	0.0	10.0	10.0	11.0	0.0	0.0	0.0	0.0	n/a	n/a	n/a	n/a	n/a	n/a	n/a	n/a	n/a	n/a	n/a	n/a	n/a	n/a	n/a	n/a	n/a	n/a	n/a	n/a	n/a	n/a	n/a	n/a	n/a	n/a	n/a	n/a	n/a	n/a	n/a	n/a	n/a	n/a	n/a	n/a	n/a	n/a	n/a	n/a	n/a	431.5879772999324	434.0535427001305	2.4499999999999904	n/a	n/a	n/a	n/a	n/a	n/a	n/a	n/a	n/a	n/a	n/a	n/a	n/a	n/a	n/a	n/a	n/a	n/a	n/a	n/a	n/a	n/a	n/a	n/a	n/a	n/a	n/a	434.0535427001305	434.1872847999912	434.1872847999912	434.2208881999832	434.2208881999832	434.2876575000119	434.2876575000119	434.2876575000119	434.2876575000119	434.2876575000119	434.2876575000119	434.2876575000119	right	n/a	n/a	n/a	n/a	0.424781099660322	434.7344164999668	435.7335431000684	n/a	n/a	n/a	n/a	utils/practice/ScrambledFW_28M_NE_C.BMP	n/a	n/a	n/a	n/a	n/a	n/a	utils/practice/ScrambledBW_28M_NE_C.BMP	n/a	n/a	n/a	n/a	n/a	n/a	n/a	n/a	n/a	n/a	n/a	n/a	n/a	n/a	n/a	n/a	n/a	n/a	n/a	n/a	n/a	n/a	n/a	n/a	n/a	n/a	n/a	n/a	34	1	2023-03-03_18h11.33.185	test_final	2022.2.4	60.26946479420882	n/a
NimStim_Database/Images/23M_NE_C.BMP	utils/practice/ScrambledFW_28M_NE_C.BMP	utils/practice/ScrambledBW_28M_NE_C.BMP	utils/practice/real_prac8.jpg	utils/practice/real_prac3.jpg	n/a	n/a	n/a	n/a	n/a	0.0	10.0	10.0	11.0	n/a	n/a	n/a	n/a	n/a	n/a	n/a	n/a	0.0	0.0	0.0	0.0	n/a	n/a	n/a	n/a	n/a	n/a	n/a	n/a	n/a	n/a	n/a	n/a	n/a	n/a	n/a	n/a	n/a	n/a	n/a	n/a	n/a	n/a	n/a	n/a	n/a	n/a	n/a	n/a	n/a	n/a	n/a	n/a	n/a	n/a	n/a	n/a	n/a	n/a	n/a	n/a	n/a	n/a	n/a	n/a	n/a	n/a	435.7335431000684	435.7335431000684	2.0	2.0066383997909725	437.7646439000964	437.7646439000964	437.7646439000964	437.7646439000964	437.7646439000964	437.7646439000964	1.0	0.671937899896875	n/a	n/a	n/a	n/a	n/a	n/a	n/a	n/a	n/a	n/a	n/a	n/a	n/a	n/a	n/a	n/a	n/a	n/a	n/a	n/a	n/a	n/a	n/a	n/a	n/a	n/a	n/a	n/a	n/a	utils/practice/ScrambledFW_28M_NE_C.BMP	n/a	n/a	n/a	n/a	n/a	n/a	utils/practice/ScrambledBW_28M_NE_C.BMP	n/a	n/a	n/a	n/a	n/a	n/a	n/a	n/a	n/a	n/a	n/a	n/a	n/a	n/a	n/a	n/a	n/a	n/a	n/a	n/a	n/a	n/a	n/a	n/a	n/a	n/a	n/a	n/a	34	1	2023-03-03_18h11.33.185	test_final	2022.2.4	60.26946479420882	n/a
NimStim_Database/Images/23M_NE_C.BMP	utils/practice/ScrambledFW_28M_NE_C.BMP	utils/practice/ScrambledBW_28M_NE_C.BMP	utils/practice/real_prac8.jpg	utils/practice/real_prac3.jpg	n/a	n/a	n/a	n/a	n/a	0.0	10.0	10.0	11.0	n/a	n/a	n/a	n/a	n/a	n/a	n/a	n/a	n/a	n/a	n/a	n/a	n/a	n/a	n/a	n/a	n/a	n/a	n/a	n/a	n/a	n/a	n/a	n/a	n/a	n/a	n/a	n/a	n/a	n/a	n/a	n/a	n/a	n/a	n/a	n/a	n/a	n/a	n/a	n/a	n/a	n/a	n/a	n/a	n/a	n/a	n/a	n/a	n/a	n/a	n/a	n/a	n/a	n/a	n/a	n/a	n/a	n/a	n/a	n/a	n/a	n/a	n/a	n/a	n/a	n/a	n/a	n/a	n/a	n/a	438.4637470000889	n/a	n/a	n/a	n/a	n/a	n/a	n/a	n/a	n/a	n/a	n/a	n/a	n/a	n/a	n/a	n/a	n/a	n/a	n/a	n/a	n/a	n/a	n/a	n/a	n/a	n/a	n/a	n/a	utils/practice/ScrambledFW_28M_NE_C.BMP	n/a	n/a	n/a	n/a	n/a	n/a	utils/practice/ScrambledBW_28M_NE_C.BMP	n/a	n/a	n/a	n/a	n/a	n/a	n/a	n/a	n/a	n/a	n/a	n/a	n/a	n/a	n/a	n/a	n/a	n/a	n/a	n/a	n/a	n/a	n/a	n/a	n/a	n/a	n/a	n/a	34	1	2023-03-03_18h11.33.185	test_final	2022.2.4	60.26946479420882	n/a
NimStim_Database/Images/15F_NE_O.BMP	utils/practice/ScrambledFW_08F_NE_O.BMP	utils/practice/ScrambledBW_08F_NE_O.BMP	utils/practice/real_prac4.jpg	utils/practice/fake_prac12.jpg	n/a	n/a	n/a	n/a	n/a	0.0	11.0	11.0	3.0	0.0	0.0	0.0	0.0	n/a	n/a	n/a	n/a	n/a	n/a	n/a	n/a	n/a	n/a	n/a	n/a	n/a	n/a	n/a	n/a	n/a	n/a	n/a	n/a	n/a	n/a	n/a	n/a	n/a	n/a	n/a	n/a	n/a	n/a	n/a	n/a	n/a	n/a	n/a	n/a	n/a	n/a	n/a	n/a	n/a	440.4783212000039	442.7464412001427	2.2599999999999945	n/a	n/a	n/a	n/a	n/a	n/a	n/a	n/a	n/a	n/a	n/a	n/a	n/a	n/a	n/a	n/a	n/a	n/a	n/a	n/a	n/a	n/a	n/a	n/a	n/a	n/a	n/a	442.7464412001427	442.8757106999401	442.8757106999401	442.9112434999552	442.9112434999552	442.969601900084	442.969601900084	442.969601900084	442.969601900084	442.969601900084	442.969601900084	442.969601900084	left	n/a	n/a	n/a	n/a	0.4956491999328136	443.4916904999409	n/a	n/a	n/a	n/a	n/a	utils/practice/ScrambledFW_08F_NE_O.BMP	n/a	n/a	n/a	n/a	n/a	n/a	utils/practice/ScrambledBW_08F_NE_O.BMP	n/a	n/a	n/a	n/a	n/a	n/a	n/a	n/a	n/a	n/a	n/a	n/a	n/a	n/a	n/a	n/a	n/a	n/a	n/a	n/a	n/a	n/a	n/a	n/a	n/a	n/a	n/a	n/a	34	1	2023-03-03_18h11.33.185	test_final	2022.2.4	60.26946479420882	n/a
NimStim_Database/Images/15F_NE_O.BMP	utils/practice/ScrambledFW_08F_NE_O.BMP	utils/practice/ScrambledBW_08F_NE_O.BMP	utils/practice/real_prac4.jpg	utils/practice/fake_prac12.jpg	n/a	n/a	n/a	n/a	n/a	0.0	11.0	11.0	3.0	n/a	n/a	n/a	n/a	n/a	n/a	n/a	n/a	0.0	0.0	0.0	0.0	n/a	n/a	n/a	n/a	n/a	n/a	n/a	n/a	n/a	n/a	n/a	n/a	n/a	n/a	n/a	n/a	n/a	n/a	n/a	n/a	n/a	n/a	n/a	n/a	n/a	n/a	n/a	n/a	n/a	n/a	n/a	n/a	n/a	n/a	n/a	n/a	n/a	n/a	n/a	n/a	n/a	n/a	n/a	n/a	n/a	n/a	444.5070154999849	444.5070154999849	1.0	1.6056092998478562	446.1388259001542	446.1388259001542	446.1388259001542	446.1388259001542	446.1388259001542	446.1388259001542	1.0	0.7156898998655379	n/a	n/a	n/a	n/a	n/a	n/a	n/a	n/a	n/a	n/a	n/a	n/a	n/a	n/a	n/a	n/a	n/a	n/a	n/a	n/a	n/a	n/a	n/a	n/a	n/a	n/a	n/a	n/a	n/a	utils/practice/ScrambledFW_08F_NE_O.BMP	n/a	n/a	n/a	n/a	n/a	n/a	utils/practice/ScrambledBW_08F_NE_O.BMP	n/a	n/a	n/a	n/a	n/a	n/a	n/a	n/a	n/a	n/a	n/a	n/a	n/a	n/a	n/a	n/a	n/a	n/a	n/a	n/a	n/a	n/a	n/a	n/a	n/a	n/a	n/a	n/a	34	1	2023-03-03_18h11.33.185	test_final	2022.2.4	60.26946479420882	n/a
NimStim_Database/Images/15F_NE_O.BMP	utils/practice/ScrambledFW_08F_NE_O.BMP	utils/practice/ScrambledBW_08F_NE_O.BMP	utils/practice/real_prac4.jpg	utils/practice/fake_prac12.jpg	n/a	n/a	n/a	n/a	n/a	0.0	11.0	11.0	3.0	n/a	n/a	n/a	n/a	n/a	n/a	n/a	n/a	n/a	n/a	n/a	n/a	n/a	n/a	n/a	n/a	n/a	n/a	n/a	n/a	n/a	n/a	n/a	n/a	n/a	n/a	n/a	n/a	n/a	n/a	n/a	n/a	n/a	n/a	n/a	n/a	n/a	n/a	n/a	n/a	n/a	n/a	n/a	n/a	n/a	n/a	n/a	n/a	n/a	n/a	n/a	n/a	n/a	n/a	n/a	n/a	n/a	n/a	n/a	n/a	n/a	n/a	n/a	n/a	n/a	n/a	n/a	n/a	n/a	n/a	446.8712377999909	n/a	n/a	n/a	n/a	n/a	n/a	n/a	n/a	n/a	n/a	n/a	n/a	n/a	n/a	n/a	n/a	n/a	n/a	n/a	n/a	n/a	n/a	n/a	n/a	n/a	n/a	n/a	n/a	utils/practice/ScrambledFW_08F_NE_O.BMP	n/a	n/a	n/a	n/a	n/a	n/a	utils/practice/ScrambledBW_08F_NE_O.BMP	n/a	n/a	n/a	n/a	n/a	n/a	n/a	n/a	n/a	n/a	n/a	n/a	n/a	n/a	n/a	n/a	n/a	n/a	n/a	n/a	n/a	n/a	n/a	n/a	n/a	n/a	n/a	n/a	34	1	2023-03-03_18h11.33.185	test_final	2022.2.4	60.26946479420882	n/a
NimStim_Database/Images/11F_NE_C.BMP	utils/practice/ScrambledFW_37M_NE_C.BMP	utils/practice/ScrambledBW_37M_NE_C.BMP	utils/practice/real_prac16.jpg	utils/practice/fake_prac1.jpg	n/a	n/a	n/a	n/a	n/a	0.0	12.0	12.0	14.0	0.0	0.0	0.0	0.0	n/a	n/a	n/a	n/a	n/a	n/a	n/a	n/a	n/a	n/a	n/a	n/a	n/a	n/a	n/a	n/a	n/a	n/a	n/a	n/a	n/a	n/a	n/a	n/a	n/a	n/a	n/a	n/a	n/a	n/a	n/a	n/a	n/a	n/a	n/a	n/a	n/a	n/a	n/a	n/a	n/a	448.8855676001404	450.9689221000299	2.0699999999999985	n/a	n/a	n/a	n/a	n/a	n/a	n/a	n/a	n/a	n/a	n/a	n/a	n/a	n/a	n/a	n/a	n/a	n/a	n/a	n/a	n/a	n/a	n/a	n/a	n/a	n/a	n/a	450.9689221000299	451.0832915001083	451.0832915001083	451.11933839996345	451.11933839996345	451.1862417999655	451.1862417999655	451.1862417999655	451.1862417999655	451.1862417999655	451.1862417999655	451.1862417999655	left	n/a	n/a	n/a	n/a	0.5752595998346806	451.782300000079	452.7813391999807	n/a	n/a	n/a	n/a	utils/practice/ScrambledFW_37M_NE_C.BMP	n/a	n/a	n/a	n/a	n/a	n/a	utils/practice/ScrambledBW_37M_NE_C.BMP	n/a	n/a	n/a	n/a	n/a	n/a	n/a	n/a	n/a	n/a	n/a	n/a	n/a	n/a	n/a	n/a	n/a	n/a	n/a	n/a	n/a	n/a	n/a	n/a	n/a	n/a	n/a	n/a	34	1	2023-03-03_18h11.33.185	test_final	2022.2.4	60.26946479420882	n/a
NimStim_Database/Images/11F_NE_C.BMP	utils/practice/ScrambledFW_37M_NE_C.BMP	utils/practice/ScrambledBW_37M_NE_C.BMP	utils/practice/real_prac16.jpg	utils/practice/fake_prac1.jpg	n/a	n/a	n/a	n/a	n/a	0.0	12.0	12.0	14.0	n/a	n/a	n/a	n/a	n/a	n/a	n/a	n/a	0.0	0.0	0.0	0.0	n/a	n/a	n/a	n/a	n/a	n/a	n/a	n/a	n/a	n/a	n/a	n/a	n/a	n/a	n/a	n/a	n/a	n/a	n/a	n/a	n/a	n/a	n/a	n/a	n/a	n/a	n/a	n/a	n/a	n/a	n/a	n/a	n/a	n/a	n/a	n/a	n/a	n/a	n/a	n/a	n/a	n/a	n/a	n/a	n/a	n/a	452.7813391999807	452.7813391999807	4.0	1.4053156999871137	454.2132787001319	454.2132787001319	454.2132787001319	454.2132787001319	454.2132787001319	454.2132787001319	4.0	1.036922700004652	n/a	n/a	n/a	n/a	n/a	n/a	n/a	n/a	n/a	n/a	n/a	n/a	n/a	n/a	n/a	n/a	n/a	n/a	n/a	n/a	n/a	n/a	n/a	n/a	n/a	n/a	n/a	n/a	n/a	utils/practice/ScrambledFW_37M_NE_C.BMP	n/a	n/a	n/a	n/a	n/a	n/a	utils/practice/ScrambledBW_37M_NE_C.BMP	n/a	n/a	n/a	n/a	n/a	n/a	n/a	n/a	n/a	n/a	n/a	n/a	n/a	n/a	n/a	n/a	n/a	n/a	n/a	n/a	n/a	n/a	n/a	n/a	n/a	n/a	n/a	n/a	34	1	2023-03-03_18h11.33.185	test_final	2022.2.4	60.26946479420882	n/a
NimStim_Database/Images/11F_NE_C.BMP	utils/practice/ScrambledFW_37M_NE_C.BMP	utils/practice/ScrambledBW_37M_NE_C.BMP	utils/practice/real_prac16.jpg	utils/practice/fake_prac1.jpg	n/a	n/a	n/a	n/a	n/a	0.0	12.0	12.0	14.0	n/a	n/a	n/a	n/a	n/a	n/a	n/a	n/a	n/a	n/a	n/a	n/a	n/a	n/a	n/a	n/a	n/a	n/a	n/a	n/a	n/a	n/a	n/a	n/a	n/a	n/a	n/a	n/a	n/a	n/a	n/a	n/a	n/a	n/a	n/a	n/a	n/a	n/a	n/a	n/a	n/a	n/a	n/a	n/a	n/a	n/a	n/a	n/a	n/a	n/a	n/a	n/a	n/a	n/a	n/a	n/a	n/a	n/a	n/a	n/a	n/a	n/a	n/a	n/a	n/a	n/a	n/a	n/a	n/a	n/a	455.27877780003473	n/a	n/a	n/a	n/a	n/a	n/a	n/a	n/a	n/a	n/a	n/a	n/a	n/a	n/a	n/a	n/a	n/a	n/a	n/a	n/a	n/a	n/a	n/a	n/a	n/a	n/a	n/a	n/a	utils/practice/ScrambledFW_37M_NE_C.BMP	n/a	n/a	n/a	n/a	n/a	n/a	utils/practice/ScrambledBW_37M_NE_C.BMP	n/a	n/a	n/a	n/a	n/a	n/a	n/a	n/a	n/a	n/a	n/a	n/a	n/a	n/a	n/a	n/a	n/a	n/a	n/a	n/a	n/a	n/a	n/a	n/a	n/a	n/a	n/a	n/a	34	1	2023-03-03_18h11.33.185	test_final	2022.2.4	60.26946479420882	n/a
NimStim_Database/Images/25M_NE_C.BMP	utils/practice/ScrambledFW_01F_NE_O.BMP	utils/practice/ScrambledBW_01F_NE_O.BMP	utils/practice/real_prac1.jpg	utils/practice/real_prac10.jpg	n/a	n/a	n/a	n/a	n/a	0.0	13.0	13.0	0.0	0.0	0.0	0.0	0.0	n/a	n/a	n/a	n/a	n/a	n/a	n/a	n/a	n/a	n/a	n/a	n/a	n/a	n/a	n/a	n/a	n/a	n/a	n/a	n/a	n/a	n/a	n/a	n/a	n/a	n/a	n/a	n/a	n/a	n/a	n/a	n/a	n/a	n/a	n/a	n/a	n/a	n/a	n/a	n/a	n/a	457.2931774000172	459.343150800094	2.039999999999999	n/a	n/a	n/a	n/a	n/a	n/a	n/a	n/a	n/a	n/a	n/a	n/a	n/a	n/a	n/a	n/a	n/a	n/a	n/a	n/a	n/a	n/a	n/a	n/a	n/a	n/a	n/a	459.343150800094	459.4905100001488	459.4905100001488	459.5310051001143	459.5310051001143	459.5923739001155	459.5923739001155	459.5923739001155	459.5923739001155	459.5923739001155	459.5923739001155	459.5923739001155	left	n/a	n/a	n/a	n/a	0.5315268998965621	460.15639779996127	461.1555554000661	n/a	n/a	n/a	n/a	utils/practice/ScrambledFW_01F_NE_O.BMP	n/a	n/a	n/a	n/a	n/a	n/a	utils/practice/ScrambledBW_01F_NE_O.BMP	n/a	n/a	n/a	n/a	n/a	n/a	n/a	n/a	n/a	n/a	n/a	n/a	n/a	n/a	n/a	n/a	n/a	n/a	n/a	n/a	n/a	n/a	n/a	n/a	n/a	n/a	n/a	n/a	34	1	2023-03-03_18h11.33.185	test_final	2022.2.4	60.26946479420882	n/a
NimStim_Database/Images/25M_NE_C.BMP	utils/practice/ScrambledFW_01F_NE_O.BMP	utils/practice/ScrambledBW_01F_NE_O.BMP	utils/practice/real_prac1.jpg	utils/practice/real_prac10.jpg	n/a	n/a	n/a	n/a	n/a	0.0	13.0	13.0	0.0	n/a	n/a	n/a	n/a	n/a	n/a	n/a	n/a	0.0	0.0	0.0	0.0	n/a	n/a	n/a	n/a	n/a	n/a	n/a	n/a	n/a	n/a	n/a	n/a	n/a	n/a	n/a	n/a	n/a	n/a	n/a	n/a	n/a	n/a	n/a	n/a	n/a	n/a	n/a	n/a	n/a	n/a	n/a	n/a	n/a	n/a	n/a	n/a	n/a	n/a	n/a	n/a	n/a	n/a	n/a	n/a	n/a	n/a	461.1555554000661	461.1555554000661	1.0	1.1993579000700263	462.3875311000738	462.3875311000738	462.3875311000738	462.3875311000738	462.3875311000738	462.3875311000738	1.0	0.7314223998691887	n/a	n/a	n/a	n/a	n/a	n/a	n/a	n/a	n/a	n/a	n/a	n/a	n/a	n/a	n/a	n/a	n/a	n/a	n/a	n/a	n/a	n/a	n/a	n/a	n/a	n/a	n/a	n/a	n/a	utils/practice/ScrambledFW_01F_NE_O.BMP	n/a	n/a	n/a	n/a	n/a	n/a	utils/practice/ScrambledBW_01F_NE_O.BMP	n/a	n/a	n/a	n/a	n/a	n/a	n/a	n/a	n/a	n/a	n/a	n/a	n/a	n/a	n/a	n/a	n/a	n/a	n/a	n/a	n/a	n/a	n/a	n/a	n/a	n/a	n/a	n/a	34	1	2023-03-03_18h11.33.185	test_final	2022.2.4	60.26946479420882	n/a
NimStim_Database/Images/25M_NE_C.BMP	utils/practice/ScrambledFW_01F_NE_O.BMP	utils/practice/ScrambledBW_01F_NE_O.BMP	utils/practice/real_prac1.jpg	utils/practice/real_prac10.jpg	n/a	n/a	n/a	n/a	n/a	0.0	13.0	13.0	0.0	n/a	n/a	n/a	n/a	n/a	n/a	n/a	n/a	n/a	n/a	n/a	n/a	n/a	n/a	n/a	n/a	n/a	n/a	n/a	n/a	n/a	n/a	n/a	n/a	n/a	n/a	n/a	n/a	n/a	n/a	n/a	n/a	n/a	n/a	n/a	n/a	n/a	n/a	n/a	n/a	n/a	n/a	n/a	n/a	n/a	n/a	n/a	n/a	n/a	n/a	n/a	n/a	n/a	n/a	n/a	n/a	n/a	n/a	n/a	n/a	n/a	n/a	n/a	n/a	n/a	n/a	n/a	n/a	n/a	n/a	463.1364368000068	n/a	n/a	n/a	n/a	n/a	n/a	n/a	n/a	n/a	n/a	n/a	n/a	n/a	n/a	n/a	n/a	n/a	n/a	n/a	n/a	n/a	n/a	n/a	n/a	n/a	n/a	n/a	n/a	utils/practice/ScrambledFW_01F_NE_O.BMP	n/a	n/a	n/a	n/a	n/a	n/a	utils/practice/ScrambledBW_01F_NE_O.BMP	n/a	n/a	n/a	n/a	n/a	n/a	n/a	n/a	n/a	n/a	n/a	n/a	n/a	n/a	n/a	n/a	n/a	n/a	n/a	n/a	n/a	n/a	n/a	n/a	n/a	n/a	n/a	n/a	34	1	2023-03-03_18h11.33.185	test_final	2022.2.4	60.26946479420882	n/a
NimStim_Database/Images/06F_NE_O.BMP	utils/practice/ScrambledFW_06F_NE_O.BMP	utils/practice/ScrambledBW_06F_NE_O.BMP	utils/practice/fake_prac2.jpg	utils/practice/real_prac15.jpg	n/a	n/a	n/a	n/a	n/a	0.0	14.0	14.0	2.0	0.0	0.0	0.0	0.0	n/a	n/a	n/a	n/a	n/a	n/a	n/a	n/a	n/a	n/a	n/a	n/a	n/a	n/a	n/a	n/a	n/a	n/a	n/a	n/a	n/a	n/a	n/a	n/a	n/a	n/a	n/a	n/a	n/a	n/a	n/a	n/a	n/a	n/a	n/a	n/a	n/a	n/a	n/a	n/a	n/a	465.1509533999488	467.2861600001343	2.129999999999997	n/a	n/a	n/a	n/a	n/a	n/a	n/a	n/a	n/a	n/a	n/a	n/a	n/a	n/a	n/a	n/a	n/a	n/a	n/a	n/a	n/a	n/a	n/a	n/a	n/a	n/a	n/a	467.2861600001343	467.4005555999465	467.4005555999465	467.4341754999477	467.4341754999477	467.4911933001131	467.4911933001131	467.4911933001131	467.4911933001131	467.4911933001131	467.4911933001131	467.4911933001131	left	n/a	n/a	n/a	n/a	0.4800542998127639	467.9980781001505	n/a	n/a	n/a	n/a	n/a	utils/practice/ScrambledFW_06F_NE_O.BMP	n/a	n/a	n/a	n/a	n/a	n/a	utils/practice/ScrambledBW_06F_NE_O.BMP	n/a	n/a	n/a	n/a	n/a	n/a	n/a	n/a	n/a	n/a	n/a	n/a	n/a	n/a	n/a	n/a	n/a	n/a	n/a	n/a	n/a	n/a	n/a	n/a	n/a	n/a	n/a	n/a	34	1	2023-03-03_18h11.33.185	test_final	2022.2.4	60.26946479420882	n/a
NimStim_Database/Images/06F_NE_O.BMP	utils/practice/ScrambledFW_06F_NE_O.BMP	utils/practice/ScrambledBW_06F_NE_O.BMP	utils/practice/fake_prac2.jpg	utils/practice/real_prac15.jpg	n/a	n/a	n/a	n/a	n/a	0.0	14.0	14.0	2.0	n/a	n/a	n/a	n/a	n/a	n/a	n/a	n/a	0.0	0.0	0.0	0.0	n/a	n/a	n/a	n/a	n/a	n/a	n/a	n/a	n/a	n/a	n/a	n/a	n/a	n/a	n/a	n/a	n/a	n/a	n/a	n/a	n/a	n/a	n/a	n/a	n/a	n/a	n/a	n/a	n/a	n/a	n/a	n/a	n/a	n/a	n/a	n/a	n/a	n/a	n/a	n/a	n/a	n/a	n/a	n/a	n/a	n/a	469.0135874000844	469.0135874000844	2.0	1.4251305998768655	470.461922199931	470.461922199931	470.461922199931	470.461922199931	470.461922199931	470.461922199931	4.0	1.0997709997463971	n/a	n/a	n/a	n/a	n/a	n/a	n/a	n/a	n/a	n/a	n/a	n/a	n/a	n/a	n/a	n/a	n/a	n/a	n/a	n/a	n/a	n/a	n/a	n/a	n/a	n/a	n/a	n/a	n/a	utils/practice/ScrambledFW_06F_NE_O.BMP	n/a	n/a	n/a	n/a	n/a	n/a	utils/practice/ScrambledBW_06F_NE_O.BMP	n/a	n/a	n/a	n/a	n/a	n/a	n/a	n/a	n/a	n/a	n/a	n/a	n/a	n/a	n/a	n/a	n/a	n/a	n/a	n/a	n/a	n/a	n/a	n/a	n/a	n/a	n/a	n/a	34	1	2023-03-03_18h11.33.185	test_final	2022.2.4	60.26946479420882	n/a
NimStim_Database/Images/06F_NE_O.BMP	utils/practice/ScrambledFW_06F_NE_O.BMP	utils/practice/ScrambledBW_06F_NE_O.BMP	utils/practice/fake_prac2.jpg	utils/practice/real_prac15.jpg	n/a	n/a	n/a	n/a	n/a	0.0	14.0	14.0	2.0	n/a	n/a	n/a	n/a	n/a	n/a	n/a	n/a	n/a	n/a	n/a	n/a	n/a	n/a	n/a	n/a	n/a	n/a	n/a	n/a	n/a	n/a	n/a	n/a	n/a	n/a	n/a	n/a	n/a	n/a	n/a	n/a	n/a	n/a	n/a	n/a	n/a	n/a	n/a	n/a	n/a	n/a	n/a	n/a	n/a	n/a	n/a	n/a	n/a	n/a	n/a	n/a	n/a	n/a	n/a	n/a	n/a	n/a	n/a	n/a	n/a	n/a	n/a	n/a	n/a	n/a	n/a	n/a	n/a	n/a	471.5940419000108	n/a	n/a	n/a	n/a	n/a	n/a	n/a	n/a	n/a	n/a	n/a	n/a	n/a	n/a	n/a	n/a	n/a	n/a	n/a	n/a	n/a	n/a	n/a	n/a	n/a	n/a	n/a	n/a	utils/practice/ScrambledFW_06F_NE_O.BMP	n/a	n/a	n/a	n/a	n/a	n/a	utils/practice/ScrambledBW_06F_NE_O.BMP	n/a	n/a	n/a	n/a	n/a	n/a	n/a	n/a	n/a	n/a	n/a	n/a	n/a	n/a	n/a	n/a	n/a	n/a	n/a	n/a	n/a	n/a	n/a	n/a	n/a	n/a	n/a	n/a	34	1	2023-03-03_18h11.33.185	test_final	2022.2.4	60.26946479420882	n/a
NimStim_Database/Images/03F_NE_O.BMP	utils/practice/ScrambledFW_23M_NE_C.BMP	utils/practice/ScrambledBW_23M_NE_C.BMP	utils/practice/fake_prac7.jpg	utils/practice/real_prac6.jpg	n/a	n/a	n/a	n/a	n/a	0.0	15.0	15.0	8.0	0.0	0.0	0.0	0.0	n/a	n/a	n/a	n/a	n/a	n/a	n/a	n/a	n/a	n/a	n/a	n/a	n/a	n/a	n/a	n/a	n/a	n/a	n/a	n/a	n/a	n/a	n/a	n/a	n/a	n/a	n/a	n/a	n/a	n/a	n/a	n/a	n/a	n/a	n/a	n/a	n/a	n/a	n/a	n/a	n/a	473.6084382999688	475.8745707001072	2.2499999999999947	n/a	n/a	n/a	n/a	n/a	n/a	n/a	n/a	n/a	n/a	n/a	n/a	n/a	n/a	n/a	n/a	n/a	n/a	n/a	n/a	n/a	n/a	n/a	n/a	n/a	n/a	n/a	475.8745707001072	475.972733899951	475.972733899951	476.0081726000644	476.0081726000644	476.067834299989	476.067834299989	476.067834299989	476.067834299989	476.067834299989	476.067834299989	476.067834299989	right	n/a	n/a	n/a	n/a	0.4117610999383032	476.505193100078	477.5042101999279	n/a	n/a	n/a	n/a	utils/practice/ScrambledFW_23M_NE_C.BMP	n/a	n/a	n/a	n/a	n/a	n/a	utils/practice/ScrambledBW_23M_NE_C.BMP	n/a	n/a	n/a	n/a	n/a	n/a	n/a	n/a	n/a	n/a	n/a	n/a	n/a	n/a	n/a	n/a	n/a	n/a	n/a	n/a	n/a	n/a	n/a	n/a	n/a	n/a	n/a	n/a	34	1	2023-03-03_18h11.33.185	test_final	2022.2.4	60.26946479420882	n/a
NimStim_Database/Images/03F_NE_O.BMP	utils/practice/ScrambledFW_23M_NE_C.BMP	utils/practice/ScrambledBW_23M_NE_C.BMP	utils/practice/fake_prac7.jpg	utils/practice/real_prac6.jpg	n/a	n/a	n/a	n/a	n/a	0.0	15.0	15.0	8.0	n/a	n/a	n/a	n/a	n/a	n/a	n/a	n/a	0.0	0.0	0.0	0.0	n/a	n/a	n/a	n/a	n/a	n/a	n/a	n/a	n/a	n/a	n/a	n/a	n/a	n/a	n/a	n/a	n/a	n/a	n/a	n/a	n/a	n/a	n/a	n/a	n/a	n/a	n/a	n/a	n/a	n/a	n/a	n/a	n/a	n/a	n/a	n/a	n/a	n/a	n/a	n/a	n/a	n/a	n/a	n/a	n/a	n/a	477.5042101999279	477.5042101999279	4.0	1.4525591998826712	478.98595959995873	478.98595959995873	478.98595959995873	478.98595959995873	478.98595959995873	478.98595959995873	4.0	0.7969644998665899	n/a	n/a	n/a	n/a	n/a	n/a	n/a	n/a	n/a	n/a	n/a	n/a	n/a	n/a	n/a	n/a	n/a	n/a	n/a	n/a	n/a	n/a	n/a	n/a	n/a	n/a	n/a	n/a	n/a	utils/practice/ScrambledFW_23M_NE_C.BMP	n/a	n/a	n/a	n/a	n/a	n/a	utils/practice/ScrambledBW_23M_NE_C.BMP	n/a	n/a	n/a	n/a	n/a	n/a	n/a	n/a	n/a	n/a	n/a	n/a	n/a	n/a	n/a	n/a	n/a	n/a	n/a	n/a	n/a	n/a	n/a	n/a	n/a	n/a	n/a	n/a	34	1	2023-03-03_18h11.33.185	test_final	2022.2.4	60.26946479420882	n/a
NimStim_Database/Images/03F_NE_O.BMP	utils/practice/ScrambledFW_23M_NE_C.BMP	utils/practice/ScrambledBW_23M_NE_C.BMP	utils/practice/fake_prac7.jpg	utils/practice/real_prac6.jpg	n/a	n/a	n/a	n/a	n/a	0.0	15.0	15.0	8.0	n/a	n/a	n/a	n/a	n/a	n/a	n/a	n/a	n/a	n/a	n/a	n/a	n/a	n/a	n/a	n/a	n/a	n/a	n/a	n/a	n/a	n/a	n/a	n/a	n/a	n/a	n/a	n/a	n/a	n/a	n/a	n/a	n/a	n/a	n/a	n/a	n/a	n/a	n/a	n/a	n/a	n/a	n/a	n/a	n/a	n/a	n/a	n/a	n/a	n/a	n/a	n/a	n/a	n/a	n/a	n/a	n/a	n/a	n/a	n/a	n/a	n/a	n/a	n/a	n/a	n/a	n/a	n/a	n/a	n/a	479.8018291001208	n/a	n/a	n/a	n/a	n/a	n/a	n/a	n/a	n/a	n/a	n/a	n/a	n/a	n/a	n/a	n/a	n/a	n/a	n/a	n/a	n/a	n/a	n/a	n/a	n/a	n/a	n/a	n/a	utils/practice/ScrambledFW_23M_NE_C.BMP	n/a	n/a	n/a	n/a	n/a	n/a	utils/practice/ScrambledBW_23M_NE_C.BMP	n/a	n/a	n/a	n/a	n/a	n/a	n/a	n/a	n/a	n/a	n/a	n/a	n/a	n/a	n/a	n/a	n/a	n/a	n/a	n/a	n/a	n/a	n/a	n/a	n/a	n/a	n/a	n/a	34	1	2023-03-03_18h11.33.185	test_final	2022.2.4	60.26946479420882	n/a
n/a	n/a	n/a	n/a	n/a	n/a	n/a	n/a	n/a	n/a	n/a	n/a	n/a	n/a	n/a	n/a	n/a	n/a	n/a	n/a	n/a	n/a	n/a	n/a	n/a	n/a	n/a	n/a	n/a	n/a	n/a	n/a	n/a	n/a	n/a	n/a	n/a	n/a	n/a	n/a	n/a	n/a	n/a	n/a	n/a	n/a	n/a	n/a	n/a	n/a	n/a	n/a	n/a	n/a	n/a	n/a	n/a	n/a	n/a	n/a	n/a	n/a	n/a	n/a	n/a	n/a	n/a	n/a	n/a	n/a	n/a	n/a	n/a	n/a	n/a	n/a	n/a	n/a	n/a	n/a	n/a	n/a	n/a	n/a	n/a	n/a	n/a	n/a	n/a	n/a	n/a	n/a	n/a	n/a	n/a	n/a	n/a	n/a	n/a	n/a	n/a	n/a	n/a	n/a	n/a	n/a	n/a	n/a	n/a	481.816245800117	space	67.07871939986944	n/a	n/a	n/a	n/a	n/a	n/a	n/a	n/a	n/a	n/a	n/a	n/a	n/a	n/a	n/a	n/a	n/a	n/a	n/a	n/a	n/a	n/a	n/a	n/a	n/a	n/a	n/a	n/a	n/a	n/a	n/a	n/a	n/a	n/a	n/a	n/a	n/a	34	1	2023-03-03_18h11.33.185	test_final	2022.2.4	60.26946479420882	n/a
n/a	utils/nb_masks/NeuScrambledFW_09F_NE_C.BMP	utils/nb_masks/NeuScrambledBW_09F_NE_C.BMP	n/a	n/a	1.0	n/a	n/a	n/a	n/a	n/a	n/a	n/a	n/a	n/a	n/a	n/a	n/a	n/a	n/a	n/a	n/a	n/a	n/a	n/a	n/a	0.0	0.0	0.0	0.0	0.0	0.0	0.0	0.0	0.0	0.0	0.0	0.0	n/a	n/a	n/a	n/a	n/a	n/a	n/a	n/a	n/a	n/a	n/a	n/a	n/a	n/a	n/a	n/a	n/a	n/a	n/a	n/a	n/a	548.9294015001506	551.0732889000792	2.139999999999997	n/a	n/a	n/a	n/a	n/a	n/a	n/a	n/a	n/a	n/a	n/a	n/a	n/a	n/a	n/a	n/a	n/a	n/a	n/a	n/a	n/a	n/a	n/a	n/a	n/a	n/a	n/a	n/a	n/a	n/a	n/a	n/a	n/a	n/a	n/a	n/a	n/a	n/a	n/a	n/a	n/a	n/a	n/a	n/a	n/a	n/a	n/a	n/a	n/a	n/a	3.500143066048622e-06	utils/nb_masks/NeuScrambledFW_09F_NE_C.BMP	0.1332211000844836	8.0	4.100147634744644e-06	0.024435400031507	utils/no_prime.png	3.100140020251274e-06	utils/nb_masks/NeuScrambledBW_09F_NE_C.BMP	0.0331202000379562	3.8000289350748062e-06	MR2_database/bf07.tif	0.0005281998310238	right	0.6668209999334067	552.0101207999978	n/a	n/a	n/a	n/a	n/a	n/a	n/a	n/a	n/a	n/a	n/a	n/a	n/a	n/a	n/a	n/a	n/a	n/a	n/a	n/a	n/a	34	1	2023-03-03_18h11.33.185	test_final	2022.2.4	60.26946479420882	n/a
n/a	n/a	n/a	n/a	n/a	1.0	n/a	n/a	n/a	n/a	n/a	n/a	n/a	n/a	n/a	n/a	n/a	n/a	n/a	n/a	n/a	n/a	n/a	n/a	n/a	n/a	0.0	0.0	0.0	0.0	0.0	0.0	0.0	0.0	n/a	n/a	n/a	n/a	n/a	n/a	n/a	n/a	0.0	0.0	0.0	0.0	n/a	n/a	n/a	n/a	n/a	n/a	n/a	n/a	n/a	n/a	n/a	n/a	n/a	n/a	n/a	n/a	n/a	n/a	n/a	n/a	n/a	n/a	n/a	n/a	n/a	n/a	553.0210382000078	553.0210382000078	4.0	2.0879943997133523	555.1356055000797	555.1356055000797	555.1356055000797	555.1356055000797	555.1356055000797	555.1356055000797	4.0	1.340351999970153	n/a	n/a	n/a	n/a	n/a	n/a	n/a	n/a	n/a	n/a	n/a	n/a	n/a	n/a	n/a	n/a	n/a	n/a	n/a	n/a	n/a	n/a	n/a	n/a	n/a	n/a	n/a	n/a	n/a	n/a	n/a	n/a	n/a	n/a	n/a	n/a	n/a	n/a	n/a	n/a	n/a	n/a	n/a	n/a	n/a	n/a	n/a	n/a	n/a	n/a	n/a	n/a	n/a	n/a	n/a	n/a	n/a	n/a	n/a	n/a	n/a	n/a	n/a	n/a	n/a	34	1	2023-03-03_18h11.33.185	test_final	2022.2.4	60.26946479420882	n/a
n/a	n/a	n/a	n/a	n/a	1.0	n/a	n/a	n/a	n/a	n/a	n/a	n/a	n/a	n/a	n/a	n/a	n/a	n/a	n/a	n/a	n/a	n/a	n/a	n/a	n/a	0.0	0.0	0.0	0.0	0.0	0.0	0.0	0.0	n/a	n/a	n/a	n/a	n/a	n/a	n/a	n/a	n/a	n/a	n/a	n/a	n/a	n/a	n/a	n/a	n/a	n/a	n/a	n/a	n/a	n/a	n/a	n/a	n/a	n/a	n/a	n/a	n/a	n/a	n/a	n/a	n/a	n/a	n/a	n/a	n/a	n/a	n/a	n/a	n/a	n/a	n/a	n/a	n/a	n/a	n/a	n/a	n/a	n/a	556.5005101000424	n/a	n/a	n/a	n/a	n/a	n/a	n/a	n/a	n/a	n/a	n/a	n/a	n/a	n/a	n/a	n/a	n/a	n/a	n/a	n/a	n/a	n/a	n/a	n/a	n/a	n/a	n/a	n/a	n/a	n/a	n/a	n/a	n/a	n/a	n/a	n/a	n/a	n/a	n/a	n/a	n/a	n/a	n/a	n/a	n/a	n/a	n/a	n/a	n/a	n/a	n/a	n/a	n/a	n/a	n/a	n/a	n/a	n/a	n/a	n/a	n/a	n/a	n/a	n/a	34	1	2023-03-03_18h11.33.185	test_final	2022.2.4	60.26946479420882	n/a
n/a	utils/nb_masks/NeuScrambledFW_10F_NE_C.BMP	utils/nb_masks/NeuScrambledBW_10F_NE_C.BMP	n/a	n/a	1.0	n/a	n/a	n/a	n/a	n/a	n/a	n/a	n/a	n/a	n/a	n/a	n/a	n/a	n/a	n/a	n/a	n/a	n/a	n/a	n/a	0.0	0.0	0.0	0.0	1.0	0.0	1.0	0.0	0.0	0.0	0.0	0.0	n/a	n/a	n/a	n/a	n/a	n/a	n/a	n/a	n/a	n/a	n/a	n/a	n/a	n/a	n/a	n/a	n/a	n/a	n/a	n/a	n/a	558.5151754999533	560.8457115001511	2.319999999999993	n/a	n/a	n/a	n/a	n/a	n/a	n/a	n/a	n/a	n/a	n/a	n/a	n/a	n/a	n/a	n/a	n/a	n/a	n/a	n/a	n/a	n/a	n/a	n/a	n/a	n/a	n/a	n/a	n/a	n/a	n/a	n/a	n/a	n/a	n/a	n/a	n/a	n/a	n/a	n/a	n/a	n/a	n/a	n/a	n/a	n/a	n/a	n/a	n/a	n/a	4.00003045797348e-06	utils/nb_masks/NeuScrambledFW_10F_NE_C.BMP	0.0997993999626487	6.0	3.899913281202316e-06	0.0320339000318199	utils/no_prime.png	3.8000289350748062e-06	utils/nb_masks/NeuScrambledBW_10F_NE_C.BMP	0.0330606000497937	4.00003045797348e-06	MR2_database/am08.tif	0.0005032999906688	right	0.5309099999722093	561.5875357999466	562.59387099999	n/a	n/a	n/a	n/a	n/a	n/a	n/a	n/a	n/a	n/a	n/a	n/a	n/a	n/a	n/a	n/a	n/a	n/a	n/a	n/a	34	1	2023-03-03_18h11.33.185	test_final	2022.2.4	60.26946479420882	n/a
n/a	n/a	n/a	n/a	n/a	1.0	n/a	n/a	n/a	n/a	n/a	n/a	n/a	n/a	n/a	n/a	n/a	n/a	n/a	n/a	n/a	n/a	n/a	n/a	n/a	n/a	0.0	0.0	0.0	0.0	1.0	0.0	1.0	0.0	n/a	n/a	n/a	n/a	n/a	n/a	n/a	n/a	0.0	0.0	0.0	0.0	n/a	n/a	n/a	n/a	n/a	n/a	n/a	n/a	n/a	n/a	n/a	n/a	n/a	n/a	n/a	n/a	n/a	n/a	n/a	n/a	n/a	n/a	n/a	n/a	n/a	n/a	562.59387099999	562.59387099999	4.0	0.9766160999424756	563.5929666000884	563.5929666000884	563.5929666000884	563.5929666000884	563.5929666000884	563.5929666000884	1.0	0.7316337998490781	n/a	n/a	n/a	n/a	n/a	n/a	n/a	n/a	n/a	n/a	n/a	n/a	n/a	n/a	n/a	n/a	n/a	n/a	n/a	n/a	n/a	n/a	n/a	n/a	n/a	n/a	n/a	n/a	n/a	n/a	n/a	n/a	n/a	n/a	n/a	n/a	n/a	n/a	n/a	n/a	n/a	n/a	n/a	n/a	n/a	n/a	n/a	n/a	n/a	n/a	n/a	n/a	n/a	n/a	n/a	n/a	n/a	n/a	n/a	n/a	n/a	n/a	n/a	n/a	n/a	34	1	2023-03-03_18h11.33.185	test_final	2022.2.4	60.26946479420882	n/a
n/a	n/a	n/a	n/a	n/a	1.0	n/a	n/a	n/a	n/a	n/a	n/a	n/a	n/a	n/a	n/a	n/a	n/a	n/a	n/a	n/a	n/a	n/a	n/a	n/a	n/a	0.0	0.0	0.0	0.0	1.0	0.0	1.0	0.0	n/a	n/a	n/a	n/a	n/a	n/a	n/a	n/a	n/a	n/a	n/a	n/a	n/a	n/a	n/a	n/a	n/a	n/a	n/a	n/a	n/a	n/a	n/a	n/a	n/a	n/a	n/a	n/a	n/a	n/a	n/a	n/a	n/a	n/a	n/a	n/a	n/a	n/a	n/a	n/a	n/a	n/a	n/a	n/a	n/a	n/a	n/a	n/a	n/a	n/a	564.3421188001521	n/a	n/a	n/a	n/a	n/a	n/a	n/a	n/a	n/a	n/a	n/a	n/a	n/a	n/a	n/a	n/a	n/a	n/a	n/a	n/a	n/a	n/a	n/a	n/a	n/a	n/a	n/a	n/a	n/a	n/a	n/a	n/a	n/a	n/a	n/a	n/a	n/a	n/a	n/a	n/a	n/a	n/a	n/a	n/a	n/a	n/a	n/a	n/a	n/a	n/a	n/a	n/a	n/a	n/a	n/a	n/a	n/a	n/a	n/a	n/a	n/a	n/a	n/a	n/a	34	1	2023-03-03_18h11.33.185	test_final	2022.2.4	60.26946479420882	n/a
n/a	utils/nb_masks/EmoScrambledFW_43M_AN_O.BMP	utils/nb_masks/EmoScrambledBW_43M_AN_O.BMP	n/a	n/a	1.0	n/a	n/a	n/a	n/a	n/a	n/a	n/a	n/a	n/a	n/a	n/a	n/a	n/a	n/a	n/a	n/a	n/a	n/a	n/a	n/a	0.0	0.0	0.0	0.0	2.0	0.0	2.0	0.0	0.0	0.0	0.0	0.0	n/a	n/a	n/a	n/a	n/a	n/a	n/a	n/a	n/a	n/a	n/a	n/a	n/a	n/a	n/a	n/a	n/a	n/a	n/a	n/a	n/a	566.3565744000953	568.8370213001035	2.46999999999999	n/a	n/a	n/a	n/a	n/a	n/a	n/a	n/a	n/a	n/a	n/a	n/a	n/a	n/a	n/a	n/a	n/a	n/a	n/a	n/a	n/a	n/a	n/a	n/a	n/a	n/a	n/a	n/a	n/a	n/a	n/a	n/a	n/a	n/a	n/a	n/a	n/a	n/a	n/a	n/a	n/a	n/a	n/a	n/a	n/a	n/a	n/a	n/a	n/a	n/a	3.899913281202316e-06	utils/nb_masks/EmoScrambledFW_43M_AN_O.BMP	0.1664780999999493	10.0	3.4999102354049683e-06	0.0320051999296993	NimStim_Database/Images/43M_AN_O.BMP	3.6999117583036414e-06	utils/nb_masks/EmoScrambledBW_43M_AN_O.BMP	0.0329938000068068	4.100147634744644e-06	MR2_database/bf08.tif	0.0004834001883864	left	0.6479515000246465	569.7646832000464	570.7681726999581	n/a	n/a	n/a	n/a	n/a	n/a	n/a	n/a	n/a	n/a	n/a	n/a	n/a	n/a	n/a	n/a	n/a	n/a	n/a	n/a	34	1	2023-03-03_18h11.33.185	test_final	2022.2.4	60.26946479420882	n/a
n/a	n/a	n/a	n/a	n/a	1.0	n/a	n/a	n/a	n/a	n/a	n/a	n/a	n/a	n/a	n/a	n/a	n/a	n/a	n/a	n/a	n/a	n/a	n/a	n/a	n/a	0.0	0.0	0.0	0.0	2.0	0.0	2.0	0.0	n/a	n/a	n/a	n/a	n/a	n/a	n/a	n/a	0.0	0.0	0.0	0.0	n/a	n/a	n/a	n/a	n/a	n/a	n/a	n/a	n/a	n/a	n/a	n/a	n/a	n/a	n/a	n/a	n/a	n/a	n/a	n/a	n/a	n/a	n/a	n/a	n/a	n/a	570.7681726999581	570.7681726999581	1.0	1.4196071999613196	572.2166581000201	572.2166581000201	572.2166581000201	572.2166581000201	572.2166581000201	572.2166581000201	4.0	1.1721082997974008	n/a	n/a	n/a	n/a	n/a	n/a	n/a	n/a	n/a	n/a	n/a	n/a	n/a	n/a	n/a	n/a	n/a	n/a	n/a	n/a	n/a	n/a	n/a	n/a	n/a	n/a	n/a	n/a	n/a	n/a	n/a	n/a	n/a	n/a	n/a	n/a	n/a	n/a	n/a	n/a	n/a	n/a	n/a	n/a	n/a	n/a	n/a	n/a	n/a	n/a	n/a	n/a	n/a	n/a	n/a	n/a	n/a	n/a	n/a	n/a	n/a	n/a	n/a	n/a	n/a	34	1	2023-03-03_18h11.33.185	test_final	2022.2.4	60.26946479420882	n/a
n/a	n/a	n/a	n/a	n/a	1.0	n/a	n/a	n/a	n/a	n/a	n/a	n/a	n/a	n/a	n/a	n/a	n/a	n/a	n/a	n/a	n/a	n/a	n/a	n/a	n/a	0.0	0.0	0.0	0.0	2.0	0.0	2.0	0.0	n/a	n/a	n/a	n/a	n/a	n/a	n/a	n/a	n/a	n/a	n/a	n/a	n/a	n/a	n/a	n/a	n/a	n/a	n/a	n/a	n/a	n/a	n/a	n/a	n/a	n/a	n/a	n/a	n/a	n/a	n/a	n/a	n/a	n/a	n/a	n/a	n/a	n/a	n/a	n/a	n/a	n/a	n/a	n/a	n/a	n/a	n/a	n/a	n/a	n/a	573.4154801000841	n/a	n/a	n/a	n/a	n/a	n/a	n/a	n/a	n/a	n/a	n/a	n/a	n/a	n/a	n/a	n/a	n/a	n/a	n/a	n/a	n/a	n/a	n/a	n/a	n/a	n/a	n/a	n/a	n/a	n/a	n/a	n/a	n/a	n/a	n/a	n/a	n/a	n/a	n/a	n/a	n/a	n/a	n/a	n/a	n/a	n/a	n/a	n/a	n/a	n/a	n/a	n/a	n/a	n/a	n/a	n/a	n/a	n/a	n/a	n/a	n/a	n/a	n/a	n/a	34	1	2023-03-03_18h11.33.185	test_final	2022.2.4	60.26946479420882	n/a
n/a	utils/nb_masks/NeuScrambledFW_21M_NE_O.BMP	utils/nb_masks/NeuScrambledBW_21M_NE_O.BMP	n/a	n/a	1.0	n/a	n/a	n/a	n/a	n/a	n/a	n/a	n/a	n/a	n/a	n/a	n/a	n/a	n/a	n/a	n/a	n/a	n/a	n/a	n/a	0.0	0.0	0.0	0.0	3.0	0.0	3.0	0.0	0.0	0.0	0.0	0.0	n/a	n/a	n/a	n/a	n/a	n/a	n/a	n/a	n/a	n/a	n/a	n/a	n/a	n/a	n/a	n/a	n/a	n/a	n/a	n/a	n/a	575.4297203000169	577.8440495000686	2.3999999999999915	n/a	n/a	n/a	n/a	n/a	n/a	n/a	n/a	n/a	n/a	n/a	n/a	n/a	n/a	n/a	n/a	n/a	n/a	n/a	n/a	n/a	n/a	n/a	n/a	n/a	n/a	n/a	n/a	n/a	n/a	n/a	n/a	n/a	n/a	n/a	n/a	n/a	n/a	n/a	n/a	n/a	n/a	n/a	n/a	n/a	n/a	n/a	n/a	n/a	n/a	4.100147634744644e-06	utils/nb_masks/NeuScrambledFW_21M_NE_O.BMP	0.0996009001974016	6.0	3.6999117583036414e-06	0.0317879999056458	NimStim_Database/Images/21M_NE_O.BMP	3.300141543149948e-06	utils/nb_masks/NeuScrambledBW_21M_NE_O.BMP	0.0331189001444727	3.6999117583036414e-06	MR2_database/wf08.tif	0.0004527999553829	right	0.4589425998274237	578.5112946000881	n/a	n/a	n/a	n/a	n/a	n/a	n/a	n/a	n/a	n/a	n/a	n/a	n/a	n/a	n/a	n/a	n/a	n/a	n/a	n/a	n/a	34	1	2023-03-03_18h11.33.185	test_final	2022.2.4	60.26946479420882	n/a
n/a	n/a	n/a	n/a	n/a	1.0	n/a	n/a	n/a	n/a	n/a	n/a	n/a	n/a	n/a	n/a	n/a	n/a	n/a	n/a	n/a	n/a	n/a	n/a	n/a	n/a	0.0	0.0	0.0	0.0	3.0	0.0	3.0	0.0	n/a	n/a	n/a	n/a	n/a	n/a	n/a	n/a	0.0	0.0	0.0	0.0	n/a	n/a	n/a	n/a	n/a	n/a	n/a	n/a	n/a	n/a	n/a	n/a	n/a	n/a	n/a	n/a	n/a	n/a	n/a	n/a	n/a	n/a	n/a	n/a	n/a	n/a	579.5253209001385	579.5253209001385	1.0	0.8365931997541338	580.3912401001435	580.3912401001435	580.3912401001435	580.3912401001435	580.3912401001435	580.3912401001435	4.0	1.0328110998962077	n/a	n/a	n/a	n/a	n/a	n/a	n/a	n/a	n/a	n/a	n/a	n/a	n/a	n/a	n/a	n/a	n/a	n/a	n/a	n/a	n/a	n/a	n/a	n/a	n/a	n/a	n/a	n/a	n/a	n/a	n/a	n/a	n/a	n/a	n/a	n/a	n/a	n/a	n/a	n/a	n/a	n/a	n/a	n/a	n/a	n/a	n/a	n/a	n/a	n/a	n/a	n/a	n/a	n/a	n/a	n/a	n/a	n/a	n/a	n/a	n/a	n/a	n/a	n/a	n/a	34	1	2023-03-03_18h11.33.185	test_final	2022.2.4	60.26946479420882	n/a
n/a	n/a	n/a	n/a	n/a	1.0	n/a	n/a	n/a	n/a	n/a	n/a	n/a	n/a	n/a	n/a	n/a	n/a	n/a	n/a	n/a	n/a	n/a	n/a	n/a	n/a	0.0	0.0	0.0	0.0	3.0	0.0	3.0	0.0	n/a	n/a	n/a	n/a	n/a	n/a	n/a	n/a	n/a	n/a	n/a	n/a	n/a	n/a	n/a	n/a	n/a	n/a	n/a	n/a	n/a	n/a	n/a	n/a	n/a	n/a	n/a	n/a	n/a	n/a	n/a	n/a	n/a	n/a	n/a	n/a	n/a	n/a	n/a	n/a	n/a	n/a	n/a	n/a	n/a	n/a	n/a	n/a	n/a	n/a	581.4566488999408	n/a	n/a	n/a	n/a	n/a	n/a	n/a	n/a	n/a	n/a	n/a	n/a	n/a	n/a	n/a	n/a	n/a	n/a	n/a	n/a	n/a	n/a	n/a	n/a	n/a	n/a	n/a	n/a	n/a	n/a	n/a	n/a	n/a	n/a	n/a	n/a	n/a	n/a	n/a	n/a	n/a	n/a	n/a	n/a	n/a	n/a	n/a	n/a	n/a	n/a	n/a	n/a	n/a	n/a	n/a	n/a	n/a	n/a	n/a	n/a	n/a	n/a	n/a	n/a	34	1	2023-03-03_18h11.33.185	test_final	2022.2.4	60.26946479420882	n/a
n/a	utils/nb_masks/NeuScrambledFW_33M_NE_O.BMP	utils/nb_masks/NeuScrambledBW_33M_NE_O.BMP	n/a	n/a	1.0	n/a	n/a	n/a	n/a	n/a	n/a	n/a	n/a	n/a	n/a	n/a	n/a	n/a	n/a	n/a	n/a	n/a	n/a	n/a	n/a	0.0	0.0	0.0	0.0	4.0	0.0	4.0	0.0	0.0	0.0	0.0	0.0	n/a	n/a	n/a	n/a	n/a	n/a	n/a	n/a	n/a	n/a	n/a	n/a	n/a	n/a	n/a	n/a	n/a	n/a	n/a	n/a	n/a	583.4711670000106	585.9682623001281	2.4899999999999896	n/a	n/a	n/a	n/a	n/a	n/a	n/a	n/a	n/a	n/a	n/a	n/a	n/a	n/a	n/a	n/a	n/a	n/a	n/a	n/a	n/a	n/a	n/a	n/a	n/a	n/a	n/a	n/a	n/a	n/a	n/a	n/a	n/a	n/a	n/a	n/a	n/a	n/a	n/a	n/a	n/a	n/a	n/a	n/a	n/a	n/a	n/a	n/a	n/a	n/a	4.200031980872154e-06	utils/nb_masks/NeuScrambledFW_33M_NE_O.BMP	0.0995255999732762	6.0	3.600027412176132e-06	0.0317905000410974	NimStim_Database/Images/33M_NE_O.BMP	3.400025889277458e-06	utils/nb_masks/NeuScrambledBW_33M_NE_O.BMP	0.0330530002247542	4.399800673127174e-06	MR2_database/wf10.tif	0.0004561999812722	left	0.4478103998117149	586.6231734000612	587.6331374000292	n/a	n/a	n/a	n/a	n/a	n/a	n/a	n/a	n/a	n/a	n/a	n/a	n/a	n/a	n/a	n/a	n/a	n/a	n/a	n/a	34	1	2023-03-03_18h11.33.185	test_final	2022.2.4	60.26946479420882	n/a
n/a	n/a	n/a	n/a	n/a	1.0	n/a	n/a	n/a	n/a	n/a	n/a	n/a	n/a	n/a	n/a	n/a	n/a	n/a	n/a	n/a	n/a	n/a	n/a	n/a	n/a	0.0	0.0	0.0	0.0	4.0	0.0	4.0	0.0	n/a	n/a	n/a	n/a	n/a	n/a	n/a	n/a	0.0	0.0	0.0	0.0	n/a	n/a	n/a	n/a	n/a	n/a	n/a	n/a	n/a	n/a	n/a	n/a	n/a	n/a	n/a	n/a	n/a	n/a	n/a	n/a	n/a	n/a	n/a	n/a	n/a	n/a	587.6331374000292	587.6331374000292	2.0	0.9618967999704182	588.6153256001417	588.6153256001417	588.6153256001417	588.6153256001417	588.6153256001417	588.6153256001417	4.0	1.990709200035781	n/a	n/a	n/a	n/a	n/a	n/a	n/a	n/a	n/a	n/a	n/a	n/a	n/a	n/a	n/a	n/a	n/a	n/a	n/a	n/a	n/a	n/a	n/a	n/a	n/a	n/a	n/a	n/a	n/a	n/a	n/a	n/a	n/a	n/a	n/a	n/a	n/a	n/a	n/a	n/a	n/a	n/a	n/a	n/a	n/a	n/a	n/a	n/a	n/a	n/a	n/a	n/a	n/a	n/a	n/a	n/a	n/a	n/a	n/a	n/a	n/a	n/a	n/a	n/a	n/a	34	1	2023-03-03_18h11.33.185	test_final	2022.2.4	60.26946479420882	n/a
n/a	n/a	n/a	n/a	n/a	1.0	n/a	n/a	n/a	n/a	n/a	n/a	n/a	n/a	n/a	n/a	n/a	n/a	n/a	n/a	n/a	n/a	n/a	n/a	n/a	n/a	0.0	0.0	0.0	0.0	4.0	0.0	4.0	0.0	n/a	n/a	n/a	n/a	n/a	n/a	n/a	n/a	n/a	n/a	n/a	n/a	n/a	n/a	n/a	n/a	n/a	n/a	n/a	n/a	n/a	n/a	n/a	n/a	n/a	n/a	n/a	n/a	n/a	n/a	n/a	n/a	n/a	n/a	n/a	n/a	n/a	n/a	n/a	n/a	n/a	n/a	n/a	n/a	n/a	n/a	n/a	n/a	n/a	n/a	590.6297555000056	n/a	n/a	n/a	n/a	n/a	n/a	n/a	n/a	n/a	n/a	n/a	n/a	n/a	n/a	n/a	n/a	n/a	n/a	n/a	n/a	n/a	n/a	n/a	n/a	n/a	n/a	n/a	n/a	n/a	n/a	n/a	n/a	n/a	n/a	n/a	n/a	n/a	n/a	n/a	n/a	n/a	n/a	n/a	n/a	n/a	n/a	n/a	n/a	n/a	n/a	n/a	n/a	n/a	n/a	n/a	n/a	n/a	n/a	n/a	n/a	n/a	n/a	n/a	n/a	34	1	2023-03-03_18h11.33.185	test_final	2022.2.4	60.26946479420882	n/a
n/a	utils/nb_masks/NeuScrambledFW_19F_NE_O.BMP	utils/nb_masks/NeuScrambledBW_19F_NE_O.BMP	n/a	n/a	1.0	n/a	n/a	n/a	n/a	n/a	n/a	n/a	n/a	n/a	n/a	n/a	n/a	n/a	n/a	n/a	n/a	n/a	n/a	n/a	n/a	0.0	0.0	0.0	0.0	5.0	0.0	5.0	0.0	0.0	0.0	0.0	0.0	n/a	n/a	n/a	n/a	n/a	n/a	n/a	n/a	n/a	n/a	n/a	n/a	n/a	n/a	n/a	n/a	n/a	n/a	n/a	n/a	n/a	592.6444121999666	595.0082706001122	2.3499999999999925	n/a	n/a	n/a	n/a	n/a	n/a	n/a	n/a	n/a	n/a	n/a	n/a	n/a	n/a	n/a	n/a	n/a	n/a	n/a	n/a	n/a	n/a	n/a	n/a	n/a	n/a	n/a	n/a	n/a	n/a	n/a	n/a	n/a	n/a	n/a	n/a	n/a	n/a	n/a	n/a	n/a	n/a	n/a	n/a	n/a	n/a	n/a	n/a	n/a	n/a	6.500165909528732e-06	utils/nb_masks/NeuScrambledFW_19F_NE_O.BMP	0.1162700001150369	7.0	3.8000289350748062e-06	0.0321843000128865	NimStim_Database/Images/19F_NE_O.BMP	3.3997930586338043e-06	utils/nb_masks/NeuScrambledBW_19F_NE_O.BMP	0.0329722999595105	4.400033503770828e-06	MR2_database/am05.tif	0.0004402000922709	left	0.6811881000176072	595.9207446000073	596.9231865999755	n/a	n/a	n/a	n/a	n/a	n/a	n/a	n/a	n/a	n/a	n/a	n/a	n/a	n/a	n/a	n/a	n/a	n/a	n/a	n/a	34	1	2023-03-03_18h11.33.185	test_final	2022.2.4	60.26946479420882	n/a
n/a	n/a	n/a	n/a	n/a	1.0	n/a	n/a	n/a	n/a	n/a	n/a	n/a	n/a	n/a	n/a	n/a	n/a	n/a	n/a	n/a	n/a	n/a	n/a	n/a	n/a	0.0	0.0	0.0	0.0	5.0	0.0	5.0	0.0	n/a	n/a	n/a	n/a	n/a	n/a	n/a	n/a	0.0	0.0	0.0	0.0	n/a	n/a	n/a	n/a	n/a	n/a	n/a	n/a	n/a	n/a	n/a	n/a	n/a	n/a	n/a	n/a	n/a	n/a	n/a	n/a	n/a	n/a	n/a	n/a	n/a	n/a	596.9231865999755	596.9231865999755	2.0	1.448407999938354	598.3880919001531	598.3880919001531	598.3880919001531	598.3880919001531	598.3880919001531	598.3880919001531	1.0	0.7551810997538269	n/a	n/a	n/a	n/a	n/a	n/a	n/a	n/a	n/a	n/a	n/a	n/a	n/a	n/a	n/a	n/a	n/a	n/a	n/a	n/a	n/a	n/a	n/a	n/a	n/a	n/a	n/a	n/a	n/a	n/a	n/a	n/a	n/a	n/a	n/a	n/a	n/a	n/a	n/a	n/a	n/a	n/a	n/a	n/a	n/a	n/a	n/a	n/a	n/a	n/a	n/a	n/a	n/a	n/a	n/a	n/a	n/a	n/a	n/a	n/a	n/a	n/a	n/a	n/a	n/a	34	1	2023-03-03_18h11.33.185	test_final	2022.2.4	60.26946479420882	n/a
n/a	n/a	n/a	n/a	n/a	1.0	n/a	n/a	n/a	n/a	n/a	n/a	n/a	n/a	n/a	n/a	n/a	n/a	n/a	n/a	n/a	n/a	n/a	n/a	n/a	n/a	0.0	0.0	0.0	0.0	5.0	0.0	5.0	0.0	n/a	n/a	n/a	n/a	n/a	n/a	n/a	n/a	n/a	n/a	n/a	n/a	n/a	n/a	n/a	n/a	n/a	n/a	n/a	n/a	n/a	n/a	n/a	n/a	n/a	n/a	n/a	n/a	n/a	n/a	n/a	n/a	n/a	n/a	n/a	n/a	n/a	n/a	n/a	n/a	n/a	n/a	n/a	n/a	n/a	n/a	n/a	n/a	n/a	n/a	599.1703958001453	n/a	n/a	n/a	n/a	n/a	n/a	n/a	n/a	n/a	n/a	n/a	n/a	n/a	n/a	n/a	n/a	n/a	n/a	n/a	n/a	n/a	n/a	n/a	n/a	n/a	n/a	n/a	n/a	n/a	n/a	n/a	n/a	n/a	n/a	n/a	n/a	n/a	n/a	n/a	n/a	n/a	n/a	n/a	n/a	n/a	n/a	n/a	n/a	n/a	n/a	n/a	n/a	n/a	n/a	n/a	n/a	n/a	n/a	n/a	n/a	n/a	n/a	n/a	n/a	34	1	2023-03-03_18h11.33.185	test_final	2022.2.4	60.26946479420882	n/a
n/a	utils/nb_masks/NeuScrambledFW_15F_NE_C.BMP	utils/nb_masks/NeuScrambledBW_15F_NE_C.BMP	n/a	n/a	1.0	n/a	n/a	n/a	n/a	n/a	n/a	n/a	n/a	n/a	n/a	n/a	n/a	n/a	n/a	n/a	n/a	n/a	n/a	n/a	n/a	0.0	0.0	0.0	0.0	6.0	0.0	6.0	0.0	0.0	0.0	0.0	0.0	n/a	n/a	n/a	n/a	n/a	n/a	n/a	n/a	n/a	n/a	n/a	n/a	n/a	n/a	n/a	n/a	n/a	n/a	n/a	n/a	n/a	601.1850296999328	603.2326597999781	2.039999999999999	n/a	n/a	n/a	n/a	n/a	n/a	n/a	n/a	n/a	n/a	n/a	n/a	n/a	n/a	n/a	n/a	n/a	n/a	n/a	n/a	n/a	n/a	n/a	n/a	n/a	n/a	n/a	n/a	n/a	n/a	n/a	n/a	n/a	n/a	n/a	n/a	n/a	n/a	n/a	n/a	n/a	n/a	n/a	n/a	n/a	n/a	n/a	n/a	n/a	n/a	4.299916326999664e-06	utils/nb_masks/NeuScrambledFW_15F_NE_C.BMP	0.0994422999210655	6.0	3.700144588947296e-06	0.0320381000638008	NimStim_Database/Images/15F_NE_C.BMP	3.400025889277458e-06	utils/nb_masks/NeuScrambledBW_15F_NE_C.BMP	0.0332600001711398	3.899913281202316e-06	MR2_database/bf18.tif	0.0004823999479413	left	0.4279746001120657	603.8729078001343	604.880908299936	n/a	n/a	n/a	n/a	n/a	n/a	n/a	n/a	n/a	n/a	n/a	n/a	n/a	n/a	n/a	n/a	n/a	n/a	n/a	n/a	34	1	2023-03-03_18h11.33.185	test_final	2022.2.4	60.26946479420882	n/a
n/a	n/a	n/a	n/a	n/a	1.0	n/a	n/a	n/a	n/a	n/a	n/a	n/a	n/a	n/a	n/a	n/a	n/a	n/a	n/a	n/a	n/a	n/a	n/a	n/a	n/a	0.0	0.0	0.0	0.0	6.0	0.0	6.0	0.0	n/a	n/a	n/a	n/a	n/a	n/a	n/a	n/a	0.0	0.0	0.0	0.0	n/a	n/a	n/a	n/a	n/a	n/a	n/a	n/a	n/a	n/a	n/a	n/a	n/a	n/a	n/a	n/a	n/a	n/a	n/a	n/a	n/a	n/a	n/a	n/a	n/a	n/a	604.880908299936	604.880908299936	1.0	1.8258163998834789	606.728940299945	606.728940299945	606.728940299945	606.728940299945	606.728940299945	606.728940299945	4.0	0.8216720998752862	n/a	n/a	n/a	n/a	n/a	n/a	n/a	n/a	n/a	n/a	n/a	n/a	n/a	n/a	n/a	n/a	n/a	n/a	n/a	n/a	n/a	n/a	n/a	n/a	n/a	n/a	n/a	n/a	n/a	n/a	n/a	n/a	n/a	n/a	n/a	n/a	n/a	n/a	n/a	n/a	n/a	n/a	n/a	n/a	n/a	n/a	n/a	n/a	n/a	n/a	n/a	n/a	n/a	n/a	n/a	n/a	n/a	n/a	n/a	n/a	n/a	n/a	n/a	n/a	n/a	34	1	2023-03-03_18h11.33.185	test_final	2022.2.4	60.26946479420882	n/a
n/a	n/a	n/a	n/a	n/a	1.0	n/a	n/a	n/a	n/a	n/a	n/a	n/a	n/a	n/a	n/a	n/a	n/a	n/a	n/a	n/a	n/a	n/a	n/a	n/a	n/a	0.0	0.0	0.0	0.0	6.0	0.0	6.0	0.0	n/a	n/a	n/a	n/a	n/a	n/a	n/a	n/a	n/a	n/a	n/a	n/a	n/a	n/a	n/a	n/a	n/a	n/a	n/a	n/a	n/a	n/a	n/a	n/a	n/a	n/a	n/a	n/a	n/a	n/a	n/a	n/a	n/a	n/a	n/a	n/a	n/a	n/a	n/a	n/a	n/a	n/a	n/a	n/a	n/a	n/a	n/a	n/a	n/a	n/a	607.5777378000785	n/a	n/a	n/a	n/a	n/a	n/a	n/a	n/a	n/a	n/a	n/a	n/a	n/a	n/a	n/a	n/a	n/a	n/a	n/a	n/a	n/a	n/a	n/a	n/a	n/a	n/a	n/a	n/a	n/a	n/a	n/a	n/a	n/a	n/a	n/a	n/a	n/a	n/a	n/a	n/a	n/a	n/a	n/a	n/a	n/a	n/a	n/a	n/a	n/a	n/a	n/a	n/a	n/a	n/a	n/a	n/a	n/a	n/a	n/a	n/a	n/a	n/a	n/a	n/a	34	1	2023-03-03_18h11.33.185	test_final	2022.2.4	60.26946479420882	n/a
n/a	utils/nb_masks/EmoScrambledFW_29M_AN_O.BMP	utils/nb_masks/EmoScrambledBW_29M_AN_O.BMP	n/a	n/a	1.0	n/a	n/a	n/a	n/a	n/a	n/a	n/a	n/a	n/a	n/a	n/a	n/a	n/a	n/a	n/a	n/a	n/a	n/a	n/a	n/a	0.0	0.0	0.0	0.0	7.0	0.0	7.0	0.0	0.0	0.0	0.0	0.0	n/a	n/a	n/a	n/a	n/a	n/a	n/a	n/a	n/a	n/a	n/a	n/a	n/a	n/a	n/a	n/a	n/a	n/a	n/a	n/a	n/a	609.5923719999846	611.8230298999697	2.229999999999995	n/a	n/a	n/a	n/a	n/a	n/a	n/a	n/a	n/a	n/a	n/a	n/a	n/a	n/a	n/a	n/a	n/a	n/a	n/a	n/a	n/a	n/a	n/a	n/a	n/a	n/a	n/a	n/a	n/a	n/a	n/a	n/a	n/a	n/a	n/a	n/a	n/a	n/a	n/a	n/a	n/a	n/a	n/a	n/a	n/a	n/a	n/a	n/a	n/a	n/a	4.400033503770828e-06	utils/nb_masks/EmoScrambledFW_29M_AN_O.BMP	0.0996489999815821	6.0	3.6999117583036414e-06	0.031254299916327	NimStim_Database/Images/29M_AN_O.BMP	3.300141543149948e-06	utils/nb_masks/EmoScrambledBW_29M_AN_O.BMP	0.0331169001292437	5.299923941493034e-06	MR2_database/am07.tif	0.0005298000760376	right	0.4345087001565844	612.4682181000244	613.4710023000371	n/a	n/a	n/a	n/a	n/a	n/a	n/a	n/a	n/a	n/a	n/a	n/a	n/a	n/a	n/a	n/a	n/a	n/a	n/a	n/a	34	1	2023-03-03_18h11.33.185	test_final	2022.2.4	60.26946479420882	n/a
n/a	n/a	n/a	n/a	n/a	1.0	n/a	n/a	n/a	n/a	n/a	n/a	n/a	n/a	n/a	n/a	n/a	n/a	n/a	n/a	n/a	n/a	n/a	n/a	n/a	n/a	0.0	0.0	0.0	0.0	7.0	0.0	7.0	0.0	n/a	n/a	n/a	n/a	n/a	n/a	n/a	n/a	0.0	0.0	0.0	0.0	n/a	n/a	n/a	n/a	n/a	n/a	n/a	n/a	n/a	n/a	n/a	n/a	n/a	n/a	n/a	n/a	n/a	n/a	n/a	n/a	n/a	n/a	n/a	n/a	n/a	n/a	613.4710023000371	613.4710023000371	4.0	0.9258243998046964	614.4199183001183	614.4199183001183	614.4199183001183	614.4199183001183	614.4199183001183	614.4199183001183	1.0	0.5829184998292476	n/a	n/a	n/a	n/a	n/a	n/a	n/a	n/a	n/a	n/a	n/a	n/a	n/a	n/a	n/a	n/a	n/a	n/a	n/a	n/a	n/a	n/a	n/a	n/a	n/a	n/a	n/a	n/a	n/a	n/a	n/a	n/a	n/a	n/a	n/a	n/a	n/a	n/a	n/a	n/a	n/a	n/a	n/a	n/a	n/a	n/a	n/a	n/a	n/a	n/a	n/a	n/a	n/a	n/a	n/a	n/a	n/a	n/a	n/a	n/a	n/a	n/a	n/a	n/a	n/a	34	1	2023-03-03_18h11.33.185	test_final	2022.2.4	60.26946479420882	n/a
n/a	n/a	n/a	n/a	n/a	1.0	n/a	n/a	n/a	n/a	n/a	n/a	n/a	n/a	n/a	n/a	n/a	n/a	n/a	n/a	n/a	n/a	n/a	n/a	n/a	n/a	0.0	0.0	0.0	0.0	7.0	0.0	7.0	0.0	n/a	n/a	n/a	n/a	n/a	n/a	n/a	n/a	n/a	n/a	n/a	n/a	n/a	n/a	n/a	n/a	n/a	n/a	n/a	n/a	n/a	n/a	n/a	n/a	n/a	n/a	n/a	n/a	n/a	n/a	n/a	n/a	n/a	n/a	n/a	n/a	n/a	n/a	n/a	n/a	n/a	n/a	n/a	n/a	n/a	n/a	n/a	n/a	n/a	n/a	615.0195129001513	n/a	n/a	n/a	n/a	n/a	n/a	n/a	n/a	n/a	n/a	n/a	n/a	n/a	n/a	n/a	n/a	n/a	n/a	n/a	n/a	n/a	n/a	n/a	n/a	n/a	n/a	n/a	n/a	n/a	n/a	n/a	n/a	n/a	n/a	n/a	n/a	n/a	n/a	n/a	n/a	n/a	n/a	n/a	n/a	n/a	n/a	n/a	n/a	n/a	n/a	n/a	n/a	n/a	n/a	n/a	n/a	n/a	n/a	n/a	n/a	n/a	n/a	n/a	n/a	34	1	2023-03-03_18h11.33.185	test_final	2022.2.4	60.26946479420882	n/a
n/a	utils/nb_masks/EmoScrambledFW_03F_AN_O.BMP	utils/nb_masks/EmoScrambledBW_03F_AN_O.BMP	n/a	n/a	1.0	n/a	n/a	n/a	n/a	n/a	n/a	n/a	n/a	n/a	n/a	n/a	n/a	n/a	n/a	n/a	n/a	n/a	n/a	n/a	n/a	0.0	0.0	0.0	0.0	8.0	0.0	8.0	0.0	0.0	0.0	0.0	0.0	n/a	n/a	n/a	n/a	n/a	n/a	n/a	n/a	n/a	n/a	n/a	n/a	n/a	n/a	n/a	n/a	n/a	n/a	n/a	n/a	n/a	617.0342359000351	619.1983072001021	2.149999999999997	n/a	n/a	n/a	n/a	n/a	n/a	n/a	n/a	n/a	n/a	n/a	n/a	n/a	n/a	n/a	n/a	n/a	n/a	n/a	n/a	n/a	n/a	n/a	n/a	n/a	n/a	n/a	n/a	n/a	n/a	n/a	n/a	n/a	n/a	n/a	n/a	n/a	n/a	n/a	n/a	n/a	n/a	n/a	n/a	n/a	n/a	n/a	n/a	n/a	n/a	3.6999117583036414e-06	utils/nb_masks/EmoScrambledFW_03F_AN_O.BMP	0.1498002998996526	9.0	3.700144588947296e-06	0.0318209000397473	NimStim_Database/Images/03F_AN_O.BMP	3.400025889277458e-06	utils/nb_masks/EmoScrambledBW_03F_AN_O.BMP	0.0332915999460965	4.09991480410099e-06	MR2_database/af07.tif	0.0004473000299185	left	0.4667697001714259	619.9263689999934	620.9298630999401	n/a	n/a	n/a	n/a	n/a	n/a	n/a	n/a	n/a	n/a	n/a	n/a	n/a	n/a	n/a	n/a	n/a	n/a	n/a	n/a	34	1	2023-03-03_18h11.33.185	test_final	2022.2.4	60.26946479420882	n/a
n/a	n/a	n/a	n/a	n/a	1.0	n/a	n/a	n/a	n/a	n/a	n/a	n/a	n/a	n/a	n/a	n/a	n/a	n/a	n/a	n/a	n/a	n/a	n/a	n/a	n/a	0.0	0.0	0.0	0.0	8.0	0.0	8.0	0.0	n/a	n/a	n/a	n/a	n/a	n/a	n/a	n/a	0.0	0.0	0.0	0.0	n/a	n/a	n/a	n/a	n/a	n/a	n/a	n/a	n/a	n/a	n/a	n/a	n/a	n/a	n/a	n/a	n/a	n/a	n/a	n/a	n/a	n/a	n/a	n/a	n/a	n/a	620.9298630999401	620.9298630999401	4.0	2.5323516000062227	623.4938781999517	623.4938781999517	623.4938781999517	623.4938781999517	623.4938781999517	623.4938781999517	4.0	0.7723195997532457	n/a	n/a	n/a	n/a	n/a	n/a	n/a	n/a	n/a	n/a	n/a	n/a	n/a	n/a	n/a	n/a	n/a	n/a	n/a	n/a	n/a	n/a	n/a	n/a	n/a	n/a	n/a	n/a	n/a	n/a	n/a	n/a	n/a	n/a	n/a	n/a	n/a	n/a	n/a	n/a	n/a	n/a	n/a	n/a	n/a	n/a	n/a	n/a	n/a	n/a	n/a	n/a	n/a	n/a	n/a	n/a	n/a	n/a	n/a	n/a	n/a	n/a	n/a	n/a	n/a	34	1	2023-03-03_18h11.33.185	test_final	2022.2.4	60.26946479420882	n/a
n/a	n/a	n/a	n/a	n/a	1.0	n/a	n/a	n/a	n/a	n/a	n/a	n/a	n/a	n/a	n/a	n/a	n/a	n/a	n/a	n/a	n/a	n/a	n/a	n/a	n/a	0.0	0.0	0.0	0.0	8.0	0.0	8.0	0.0	n/a	n/a	n/a	n/a	n/a	n/a	n/a	n/a	n/a	n/a	n/a	n/a	n/a	n/a	n/a	n/a	n/a	n/a	n/a	n/a	n/a	n/a	n/a	n/a	n/a	n/a	n/a	n/a	n/a	n/a	n/a	n/a	n/a	n/a	n/a	n/a	n/a	n/a	n/a	n/a	n/a	n/a	n/a	n/a	n/a	n/a	n/a	n/a	n/a	n/a	624.2929319001269	n/a	n/a	n/a	n/a	n/a	n/a	n/a	n/a	n/a	n/a	n/a	n/a	n/a	n/a	n/a	n/a	n/a	n/a	n/a	n/a	n/a	n/a	n/a	n/a	n/a	n/a	n/a	n/a	n/a	n/a	n/a	n/a	n/a	n/a	n/a	n/a	n/a	n/a	n/a	n/a	n/a	n/a	n/a	n/a	n/a	n/a	n/a	n/a	n/a	n/a	n/a	n/a	n/a	n/a	n/a	n/a	n/a	n/a	n/a	n/a	n/a	n/a	n/a	n/a	34	1	2023-03-03_18h11.33.185	test_final	2022.2.4	60.26946479420882	n/a
n/a	utils/nb_masks/NeuScrambledFW_01F_NE_O.BMP	utils/nb_masks/NeuScrambledBW_01F_NE_O.BMP	n/a	n/a	1.0	n/a	n/a	n/a	n/a	n/a	n/a	n/a	n/a	n/a	n/a	n/a	n/a	n/a	n/a	n/a	n/a	n/a	n/a	n/a	n/a	0.0	0.0	0.0	0.0	9.0	0.0	9.0	0.0	0.0	0.0	0.0	0.0	n/a	n/a	n/a	n/a	n/a	n/a	n/a	n/a	n/a	n/a	n/a	n/a	n/a	n/a	n/a	n/a	n/a	n/a	n/a	n/a	n/a	626.3073901999742	628.7877007999923	2.4799999999999898	n/a	n/a	n/a	n/a	n/a	n/a	n/a	n/a	n/a	n/a	n/a	n/a	n/a	n/a	n/a	n/a	n/a	n/a	n/a	n/a	n/a	n/a	n/a	n/a	n/a	n/a	n/a	n/a	n/a	n/a	n/a	n/a	n/a	n/a	n/a	n/a	n/a	n/a	n/a	n/a	n/a	n/a	n/a	n/a	n/a	n/a	n/a	n/a	n/a	n/a	3.90014611184597e-06	utils/nb_masks/NeuScrambledFW_01F_NE_O.BMP	0.1665800001937896	10.0	3.4999102354049683e-06	0.031874599866569	utils/no_prime.png	3.200024366378784e-06	utils/nb_masks/NeuScrambledBW_01F_NE_O.BMP	0.032989100087434	4.200031980872154e-06	MR2_database/bm09.tif	0.0004976000636816	right	0.6871783998794854	629.7504889001139	630.7522189000156	n/a	n/a	n/a	n/a	n/a	n/a	n/a	n/a	n/a	n/a	n/a	n/a	n/a	n/a	n/a	n/a	n/a	n/a	n/a	n/a	34	1	2023-03-03_18h11.33.185	test_final	2022.2.4	60.26946479420882	n/a
n/a	n/a	n/a	n/a	n/a	1.0	n/a	n/a	n/a	n/a	n/a	n/a	n/a	n/a	n/a	n/a	n/a	n/a	n/a	n/a	n/a	n/a	n/a	n/a	n/a	n/a	0.0	0.0	0.0	0.0	9.0	0.0	9.0	0.0	n/a	n/a	n/a	n/a	n/a	n/a	n/a	n/a	0.0	0.0	0.0	0.0	n/a	n/a	n/a	n/a	n/a	n/a	n/a	n/a	n/a	n/a	n/a	n/a	n/a	n/a	n/a	n/a	n/a	n/a	n/a	n/a	n/a	n/a	n/a	n/a	n/a	n/a	630.7522189000156	630.7522189000156	4.0	1.8848322997801008	632.6667341000866	632.6667341000866	632.6667341000866	632.6667341000866	632.6667341000866	632.6667341000866	1.0	0.7110201998148113	n/a	n/a	n/a	n/a	n/a	n/a	n/a	n/a	n/a	n/a	n/a	n/a	n/a	n/a	n/a	n/a	n/a	n/a	n/a	n/a	n/a	n/a	n/a	n/a	n/a	n/a	n/a	n/a	n/a	n/a	n/a	n/a	n/a	n/a	n/a	n/a	n/a	n/a	n/a	n/a	n/a	n/a	n/a	n/a	n/a	n/a	n/a	n/a	n/a	n/a	n/a	n/a	n/a	n/a	n/a	n/a	n/a	n/a	n/a	n/a	n/a	n/a	n/a	n/a	n/a	34	1	2023-03-03_18h11.33.185	test_final	2022.2.4	60.26946479420882	n/a
n/a	n/a	n/a	n/a	n/a	1.0	n/a	n/a	n/a	n/a	n/a	n/a	n/a	n/a	n/a	n/a	n/a	n/a	n/a	n/a	n/a	n/a	n/a	n/a	n/a	n/a	0.0	0.0	0.0	0.0	9.0	0.0	9.0	0.0	n/a	n/a	n/a	n/a	n/a	n/a	n/a	n/a	n/a	n/a	n/a	n/a	n/a	n/a	n/a	n/a	n/a	n/a	n/a	n/a	n/a	n/a	n/a	n/a	n/a	n/a	n/a	n/a	n/a	n/a	n/a	n/a	n/a	n/a	n/a	n/a	n/a	n/a	n/a	n/a	n/a	n/a	n/a	n/a	n/a	n/a	n/a	n/a	n/a	n/a	633.3994003001135	n/a	n/a	n/a	n/a	n/a	n/a	n/a	n/a	n/a	n/a	n/a	n/a	n/a	n/a	n/a	n/a	n/a	n/a	n/a	n/a	n/a	n/a	n/a	n/a	n/a	n/a	n/a	n/a	n/a	n/a	n/a	n/a	n/a	n/a	n/a	n/a	n/a	n/a	n/a	n/a	n/a	n/a	n/a	n/a	n/a	n/a	n/a	n/a	n/a	n/a	n/a	n/a	n/a	n/a	n/a	n/a	n/a	n/a	n/a	n/a	n/a	n/a	n/a	n/a	34	1	2023-03-03_18h11.33.185	test_final	2022.2.4	60.26946479420882	n/a
n/a	utils/nb_masks/EmoScrambledFW_37M_AN_C.BMP	utils/nb_masks/EmoScrambledBW_37M_AN_C.BMP	n/a	n/a	1.0	n/a	n/a	n/a	n/a	n/a	n/a	n/a	n/a	n/a	n/a	n/a	n/a	n/a	n/a	n/a	n/a	n/a	n/a	n/a	n/a	0.0	0.0	0.0	0.0	10.0	0.0	10.0	0.0	0.0	0.0	0.0	0.0	n/a	n/a	n/a	n/a	n/a	n/a	n/a	n/a	n/a	n/a	n/a	n/a	n/a	n/a	n/a	n/a	n/a	n/a	n/a	n/a	n/a	635.4141029999591	637.8444807000924	2.419999999999991	n/a	n/a	n/a	n/a	n/a	n/a	n/a	n/a	n/a	n/a	n/a	n/a	n/a	n/a	n/a	n/a	n/a	n/a	n/a	n/a	n/a	n/a	n/a	n/a	n/a	n/a	n/a	n/a	n/a	n/a	n/a	n/a	n/a	n/a	n/a	n/a	n/a	n/a	n/a	n/a	n/a	n/a	n/a	n/a	n/a	n/a	n/a	n/a	n/a	n/a	3.90014611184597e-06	utils/nb_masks/EmoScrambledFW_37M_AN_C.BMP	0.1494836001656949	9.0	3.899913281202316e-06	0.032010099850595	utils/no_prime.png	3.2999087125062943e-06	utils/nb_masks/EmoScrambledBW_37M_AN_C.BMP	0.0331885998602956	4.300149157643318e-06	MR2_database/wm07.tif	0.0004814001731574	right	0.5454850001260638	638.6490976000205	n/a	n/a	n/a	n/a	n/a	n/a	n/a	n/a	n/a	n/a	n/a	n/a	n/a	n/a	n/a	n/a	n/a	n/a	n/a	n/a	n/a	34	1	2023-03-03_18h11.33.185	test_final	2022.2.4	60.26946479420882	n/a
n/a	n/a	n/a	n/a	n/a	1.0	n/a	n/a	n/a	n/a	n/a	n/a	n/a	n/a	n/a	n/a	n/a	n/a	n/a	n/a	n/a	n/a	n/a	n/a	n/a	n/a	0.0	0.0	0.0	0.0	10.0	0.0	10.0	0.0	n/a	n/a	n/a	n/a	n/a	n/a	n/a	n/a	0.0	0.0	0.0	0.0	n/a	n/a	n/a	n/a	n/a	n/a	n/a	n/a	n/a	n/a	n/a	n/a	n/a	n/a	n/a	n/a	n/a	n/a	n/a	n/a	n/a	n/a	n/a	n/a	n/a	n/a	639.65913429996	639.65913429996	2.0	1.7456616999115795	641.4238468999974	641.4238468999974	641.4238468999974	641.4238468999974	641.4238468999974	641.4238468999974	1.0	0.7196208999957889	n/a	n/a	n/a	n/a	n/a	n/a	n/a	n/a	n/a	n/a	n/a	n/a	n/a	n/a	n/a	n/a	n/a	n/a	n/a	n/a	n/a	n/a	n/a	n/a	n/a	n/a	n/a	n/a	n/a	n/a	n/a	n/a	n/a	n/a	n/a	n/a	n/a	n/a	n/a	n/a	n/a	n/a	n/a	n/a	n/a	n/a	n/a	n/a	n/a	n/a	n/a	n/a	n/a	n/a	n/a	n/a	n/a	n/a	n/a	n/a	n/a	n/a	n/a	n/a	n/a	34	1	2023-03-03_18h11.33.185	test_final	2022.2.4	60.26946479420882	n/a
